File: Julia/LGM50 PBBM Validation/201204-LGM50-Conditioning-Charge+Discharge_Cycle2_Channel_1_Wb_1.CSV
Data_Point,Date_Time,Test_Time(s),Step_Time(s),Cycle_Index,Step_Index,Current(A),Voltage(V),Power(W),Charge_Capacity(Ah),Discharge_Capacity(Ah),Charge_Energy(Wh),Discharge_Energy(Wh),ACR(Ohm),dV/dt(V/s),Internal_Resistance(Ohm),dQ/dV(Ah/V),dV/dQ(V/Ah),Aux_Temperature_1(C),Aux_dT/dt_1(C),Aux_Temperature_2(C),Aux_dT/dt_2(C),Aux_Temperature_3(C),Aux_dT/dt_3(C),Aux_Temperature_4(C),Aux_dT/dt_4(C),Aux_Temperature_5(C),Aux_dT/dt_5(C),Aux_Temperature_6(C),Aux_dT/dt_6(C),Aux_Temperature_7(C),Aux_dT/dt_7(C),Aux_Temperature_8(C),Aux_dT/dt_8(C),Aux_Temperature_9(C),Aux_dT/dt_9(C),Aux_Temperature_10(C),Aux_dT/dt_10(C),Aux_Temperature_11(C),Aux_dT/dt_11(C),Aux_Temperature_12(C),Aux_dT/dt_12(C),Aux_Temperature_13(C),Aux_dT/dt_13(C),Aux_Temperature_14(C),Aux_dT/dt_14(C),Aux_Temperature_15(C),Aux_dT/dt_15(C),Aux_Temperature_16(C),Aux_dT/dt_16(C),Aux_Temperature_17(Espec(C)),Aux_dT/dt_17(Espec(C))
1,12/04/2020 17:36:52:017,10.0001,10.0001,1,1,0,3.473289,0,0,0,0,0,,-0.000286738,,,,28.33334,0.007663965,-270,0,-270,0,-270,0,-270,0,-270,0,-270,0,-270,0,-270,0,-270,0,-270,0,-270,0,-270,0,-270,0,-270,0,-270,0,25.4,0
73,12/04/2020 17:38:27:772,105.7556,69.0001,1,3,3.396736,3.60748,12.2537,0.06481069,0,0.2324998,0,,,,,,28.09457,-0.08494318,-270,0,-270,0,-270,0,-270,0,-270,0,-270,0,-270,0,-270,0,-270,0,-270,0,-270,0,-270,0,-270,0,-270,0,-270,0,25.1,0
145,12/04/2020 17:39:39:773,177.756,141.0005,1,3,3.39666,3.628727,12.3256,0.1327198,0,0.4782679,0,,,,,,27.86784,-0.1409221,-270,0,-270,0,-270,0,-270,0,-270,0,-270,0,-270,0,-270,0,-270,0,-270,0,-270,0,-270,0,-270,0,-270,0,-270,0,25.1,0
217,12/04/2020 17:40:51:772,249.7557,213.0002,1,3,3.396408,3.645098,12.3802,0.2006294,0,0.7252662,0,,0.000222665,,,,27.83294,-0.08306801,-270,0,-270,0,-270,0,-270,0,-270,0,-270,0,-270,0,-270,0,-270,0,-270,0,-270,0,-270,0,-270,0,-270,0,-270,0,25,0
289,12/04/2020 17:42:03:773,321.7561,285.0006,1,3,3.396812,3.660203,12.433,0.2685433,0,0.9733319,0,,,,,,26.21616,-0.1369601,-270,0,-270,0,-270,0,-270,0,-270,0,-270,0,-270,0,-270,0,-270,0,-270,0,-270,0,-270,0,-270,0,-270,0,-270,0,21.7,0
361,12/04/2020 17:43:15:773,393.756,357.0005,1,3,3.396049,3.674143,12.4776,0.3364588,0,1.222394,0,,0.000186441,,,,28.08494,-0.006534457,-270,0,-270,0,-270,0,-270,0,-270,0,-270,0,-270,0,-270,0,-270,0,-270,0,-270,0,-270,0,-270,0,-270,0,-270,0,24.6,0
433,12/04/2020 17:44:27:772,465.7558,429.0003,1,3,3.396339,3.686126,12.5193,0.4043736,0,1.472337,0,,,,,,28.61055,-0.06483555,-270,0,-270,0,-270,0,-270,0,-270,0,-270,0,-270,0,-270,0,-270,0,-270,0,-270,0,-270,0,-270,0,-270,0,-270,0,25.9,0
505,12/04/2020 17:45:39:772,537.7556,501.0001,1,3,3.397041,3.696751,12.558,0.4722917,0,1.72306,0,,,,6.55717,,28.33334,0.1132673,-270,0,-270,0,-270,0,-270,0,-270,0,-270,0,-270,0,-270,0,-270,0,-270,0,-270,0,-270,0,-270,0,-270,0,-270,0,24.9,0
577,12/04/2020 17:46:51:772,609.7556,573.0001,1,3,3.396561,3.70619,12.5883,0.5402116,0,1.974468,0,,,,,,27.75063,-0.008584261,-270,0,-270,0,-270,0,-270,0,-270,0,-270,0,-270,0,-270,0,-270,0,-270,0,-270,0,-270,0,-270,0,-270,0,-270,0,24.8,0
649,12/04/2020 17:48:03:772,681.7557,645.0002,1,3,3.396561,3.715755,12.6208,0.6081317,0,2.226528,0,,,,,,27.98763,0.0295794,-270,0,-270,0,-270,0,-270,0,-270,0,-270,0,-270,0,-270,0,-270,0,-270,0,-270,0,-270,0,-270,0,-270,0,-270,0,24.9,0
721,12/04/2020 17:49:15:772,753.7557,717.0002,1,3,3.396469,3.725894,12.6549,0.6760512,0,2.479245,0,,,,,,28.42954,0.1344115,-270,0,-270,0,-270,0,-270,0,-270,0,-270,0,-270,0,-270,0,-270,0,-270,0,-270,0,-270,0,-270,0,-270,0,-270,0,25,0
793,12/04/2020 17:50:27:773,825.7561,789.0006,1,3,3.396584,3.736168,12.6902,0.7439741,0,2.732659,0,,,,,,28.08329,0.05350947,-270,0,-270,0,-270,0,-270,0,-270,0,-270,0,-270,0,-270,0,-270,0,-270,0,-270,0,-270,0,-270,0,-270,0,-270,0,25,0
865,12/04/2020 17:51:39:773,897.7561,861.0006,1,3,3.396164,3.746382,12.7233,0.8118938,0,2.98676,0,,,,,,28.17748,0.04864931,-270,0,-270,0,-270,0,-270,0,-270,0,-270,0,-270,0,-270,0,-270,0,-270,0,-270,0,-270,0,-270,0,-270,0,-270,0,25,0
937,12/04/2020 17:52:51:772,969.7559,933.0004,1,3,3.396751,3.75693,12.7614,0.8798093,0,3.241555,0,,0.000107949,,,,28.01123,0.002382398,-270,0,-270,0,-270,0,-270,0,-270,0,-270,0,-270,0,-270,0,-270,0,-270,0,-270,0,-270,0,-270,0,-270,0,-270,0,25,0
1009,12/04/2020 17:54:03:772,1041.76,1005,1,3,3.396751,3.767004,12.7956,0.9477252,0,3.497054,0,,,,6.74814,,28.05198,-0.02394199,-270,0,-270,0,-270,0,-270,0,-270,0,-270,0,-270,0,-270,0,-270,0,-270,0,-270,0,-270,0,-270,0,-270,0,-270,0,25,0
1081,12/04/2020 17:55:15:772,1113.76,1077,1,3,3.397018,3.776545,12.829,1.015645,0,3.753242,0,,,,,,28.16222,-0.05986869,-270,0,-270,0,-270,0,-270,0,-270,0,-270,0,-270,0,-270,0,-270,0,-270,0,-270,0,-270,0,-270,0,-270,0,-270,0,25,0
1153,12/04/2020 17:56:27:772,1185.76,1149,1,3,3.397385,3.785929,12.8623,1.083567,0,4.010078,0,,,,,,27.94027,-0.1161313,-270,0,-270,0,-270,0,-270,0,-270,0,-270,0,-270,0,-270,0,-270,0,-270,0,-270,0,-270,0,-270,0,-270,0,-270,0,25,0
1225,12/04/2020 17:57:39:772,1257.76,1221,1,3,3.39743,3.795324,12.8943,1.151491,0,4.267559,0,,0.000145781,,,,27.81379,-0.2097386,-270,0,-270,0,-270,0,-270,0,-270,0,-270,0,-270,0,-270,0,-270,0,-270,0,-270,0,-270,0,-270,0,-270,0,-270,0,25,0
1297,12/04/2020 17:58:51:772,1329.76,1293,1,3,3.396378,3.804867,12.9228,1.219407,0,4.525652,0,,,,,,28.02072,-0.14314,-270,0,-270,0,-270,0,-270,0,-270,0,-270,0,-270,0,-270,0,-270,0,-270,0,-270,0,-270,0,-270,0,-270,0,-270,0,25.1,0
1369,12/04/2020 18:00:03:772,1401.76,1365,1,3,3.396484,3.815254,12.9584,1.287321,0,4.784402,0,,,,,,28.15951,0.002105832,-270,0,-270,0,-270,0,-270,0,-270,0,-270,0,-270,0,-270,0,-270,0,-270,0,-270,0,-270,0,-270,0,-270,0,-270,0,25,0
1441,12/04/2020 18:01:15:773,1473.756,1437,1,3,3.396568,3.825635,12.994,1.355239,0,5.043862,0,,,,,,27.85749,-0.08191586,-270,0,-270,0,-270,0,-270,0,-270,0,-270,0,-270,0,-270,0,-270,0,-270,0,-270,0,-270,0,-270,0,-270,0,-270,0,25,0
1513,12/04/2020 18:02:27:773,1545.76,1509,1,3,3.39698,3.836553,13.0327,1.423157,0,5.30406,0,,,,,,28.54277,0.1856071,-270,0,-270,0,-270,0,-270,0,-270,0,-270,0,-270,0,-270,0,-270,0,-270,0,-270,0,-270,0,-270,0,-270,0,-270,0,25,0
1585,12/04/2020 18:03:39:773,1617.756,1581,1,3,3.396675,3.84831,13.0715,1.491076,0,5.565038,0,,0.000133245,,,,28.26519,-0.1519865,-270,0,-270,0,-270,0,-270,0,-270,0,-270,0,-270,0,-270,0,-270,0,-270,0,-270,0,-270,0,-270,0,-270,0,-270,0,25,0
1657,12/04/2020 18:04:51:773,1689.756,1653,1,3,3.397163,3.860721,13.1155,1.558993,0,5.826826,0,,,,,,28.46933,0.0324899,-270,0,-270,0,-270,0,-270,0,-270,0,-270,0,-270,0,-270,0,-270,0,-270,0,-270,0,-270,0,-270,0,-270,0,-270,0,25,0
1729,12/04/2020 18:06:03:772,1761.76,1725,1,3,3.396645,3.874108,13.159,1.626907,0,6.089475,0,,,,,,28.06236,-0.1262814,-270,0,-270,0,-270,0,-270,0,-270,0,-270,0,-270,0,-270,0,-270,0,-270,0,-270,0,-270,0,-270,0,-270,0,-270,0,25,0
1801,12/04/2020 18:07:15:772,1833.76,1797,1,3,3.396721,3.887909,13.2061,1.694825,0,6.353058,0,,,,,,28.00671,-0.1317996,-270,0,-270,0,-270,0,-270,0,-270,0,-270,0,-270,0,-270,0,-270,0,-270,0,-270,0,-270,0,-270,0,-270,0,-270,0,25,0
1873,12/04/2020 18:08:27:772,1905.76,1869,1,3,3.39698,3.902266,13.2559,1.762752,0,6.617632,0,,,,,,28.55896,0.1521152,-270,0,-270,0,-270,0,-270,0,-270,0,-270,0,-270,0,-270,0,-270,0,-270,0,-270,0,-270,0,-270,0,-270,0,-270,0,25,0
1945,12/04/2020 18:09:39:772,1977.76,1941,1,3,3.396469,3.917059,13.3042,1.830676,0,6.883191,0,,,,,,28.05638,-0.08081317,-270,0,-270,0,-270,0,-270,0,-270,0,-270,0,-270,0,-270,0,-270,0,-270,0,-270,0,-270,0,-270,0,-270,0,-270,0,25,0
2017,12/04/2020 18:10:51:772,2049.76,2013,1,3,3.396049,3.932078,13.3535,1.898599,0,7.149761,0,,,,,,28.15206,-0.2052391,-270,0,-270,0,-270,0,-270,0,-270,0,-270,0,-270,0,-270,0,-270,0,-270,0,-270,0,-270,0,-270,0,-270,0,-270,0,25,0
2089,12/04/2020 18:12:03:772,2121.76,2085,1,3,3.396118,3.947206,13.4052,1.966515,0,7.417331,0,,,,,,28.34612,0.02357244,-270,0,-270,0,-270,0,-270,0,-270,0,-270,0,-270,0,-270,0,-270,0,-270,0,-270,0,-270,0,-270,0,-270,0,-270,0,25,0
2161,12/04/2020 18:13:15:773,2193.76,2157,1,3,3.396797,3.962413,13.4595,2.034431,0,7.685935,0,,,,,,28.64877,0.07992327,-270,0,-270,0,-270,0,-270,0,-270,0,-270,0,-270,0,-270,0,-270,0,-270,0,-270,0,-270,0,-270,0,-270,0,-270,0,25,0
2233,12/04/2020 18:14:27:772,2265.76,2229,1,3,3.396233,3.977412,13.5082,2.102352,0,7.955574,0,,0.000394653,,,,28.59972,0.1408494,-270,0,-270,0,-270,0,-270,0,-270,0,-270,0,-270,0,-270,0,-270,0,-270,0,-270,0,-270,0,-270,0,-270,0,-270,0,25,0
2305,12/04/2020 18:15:39:772,2337.76,2301,1,3,3.396988,3.992378,13.5621,2.170274,0,8.226232,0,,,,,,28.64223,0.02504468,-270,0,-270,0,-270,0,-270,0,-270,0,-270,0,-270,0,-270,0,-270,0,-270,0,-270,0,-270,0,-270,0,-270,0,-270,0,25,0
2377,12/04/2020 18:16:51:772,2409.76,2373,1,3,3.396828,4.006858,13.6106,2.238204,0,8.497917,0,,,,,,28.44343,-0.1430774,-270,0,-270,0,-270,0,-270,0,-270,0,-270,0,-270,0,-270,0,-270,0,-270,0,-270,0,-270,0,-270,0,-270,0,-270,0,25,0
2449,12/04/2020 18:18:03:772,2481.76,2445,1,3,3.397575,4.021049,13.6618,2.306139,0,8.770595,0,,,,,,28.36599,-0.05454183,-270,0,-270,0,-270,0,-270,0,-270,0,-270,0,-270,0,-270,0,-270,0,-270,0,-270,0,-270,0,-270,0,-270,0,-270,0,25,0
2521,12/04/2020 18:19:15:772,2553.76,2517,1,3,3.397797,4.034637,13.7089,2.374074,0,9.044227,0,,,,,,28.24384,-0.05722284,-270,0,-270,0,-270,0,-270,0,-270,0,-270,0,-270,0,-270,0,-270,0,-270,0,-270,0,-270,0,-270,0,-270,0,-270,0,24.9,0
2593,12/04/2020 18:20:27:772,2625.76,2589,1,3,3.397202,4.048312,13.7529,2.442011,0,9.31881,0,,,,4.97759,,28.83558,0.1163101,-270,0,-270,0,-270,0,-270,0,-270,0,-270,0,-270,0,-270,0,-270,0,-270,0,-270,0,-270,0,-270,0,-270,0,-270,0,24.9,0
2665,12/04/2020 18:21:39:773,2697.76,2661,1,3,3.397369,4.062176,13.8007,2.509937,0,9.594279,0,,,,,,28.16169,-0.1261914,-270,0,-270,0,-270,0,-270,0,-270,0,-270,0,-270,0,-270,0,-270,0,-270,0,-270,0,-270,0,-270,0,-270,0,-270,0,25,0
2737,12/04/2020 18:22:51:772,2769.76,2733,1,3,3.396606,4.076011,13.8446,2.577863,0,9.870672,0,,0.000127584,,,,28.18331,-0.1884794,-270,0,-270,0,-270,0,-270,0,-270,0,-270,0,-270,0,-270,0,-270,0,-270,0,-270,0,-270,0,-270,0,-270,0,-270,0,25,0
2809,12/04/2020 18:24:03:772,2841.76,2805,1,3,3.397293,4.089696,13.8939,2.645785,0,10.14798,0,,0.000168661,,,,28.65786,-0.02840579,-270,0,-270,0,-270,0,-270,0,-270,0,-270,0,-270,0,-270,0,-270,0,-270,0,-270,0,-270,0,-270,0,-270,0,-270,0,25,0
2881,12/04/2020 18:25:15:772,2913.76,2877,1,3,3.397316,4.104013,13.9426,2.713712,0,10.42626,0,,,,4.9241,,28.80427,0.2028364,-270,0,-270,0,-270,0,-270,0,-270,0,-270,0,-270,0,-270,0,-270,0,-270,0,-270,0,-270,0,-270,0,-270,0,-270,0,25,0
2953,12/04/2020 18:26:27:773,2985.76,2949,1,3,3.397018,4.11833,13.99,2.781639,0,10.70551,0,,0.000233609,,,,28.28811,-0.1180762,-270,0,-270,0,-270,0,-270,0,-270,0,-270,0,-270,0,-270,0,-270,0,-270,0,-270,0,-270,0,-270,0,-270,0,-270,0,25,0
3025,12/04/2020 18:27:39:773,3057.756,3021,1,3,3.397316,4.133304,14.0421,2.849566,0,10.98578,0,,,,,,28.69295,0.03993273,-270,0,-270,0,-270,0,-270,0,-270,0,-270,0,-270,0,-270,0,-270,0,-270,0,-270,0,-270,0,-270,0,-270,0,-270,0,25,0
3097,12/04/2020 18:28:51:772,3129.76,3093,1,3,3.396797,4.149002,14.0933,2.917494,0,11.26708,0,,,,4.24429,,28.698,0.1192224,-270,0,-270,0,-270,0,-270,0,-270,0,-270,0,-270,0,-270,0,-270,0,-270,0,-270,0,-270,0,-270,0,-270,0,-270,0,25,0
3169,12/04/2020 18:30:03:772,3201.76,3165,1,3,3.396873,4.164536,14.1464,2.985412,0,11.54941,0,,,,,,28.23721,0.022282,-270,0,-270,0,-270,0,-270,0,-270,0,-270,0,-270,0,-270,0,-270,0,-270,0,-270,0,-270,0,-270,0,-270,0,-270,0,25,0
3241,12/04/2020 18:31:15:772,3273.76,3237,1,3,3.396927,4.180595,14.2012,3.053338,0,11.83284,0,,,,,,28.7771,0.2015978,-270,0,-270,0,-270,0,-270,0,-270,0,-270,0,-270,0,-270,0,-270,0,-270,0,-270,0,-270,0,-270,0,-270,0,-270,0,25,0
3313,12/04/2020 18:32:27:772,3345.76,3309,1,3,3.396675,4.196427,14.2539,3.121264,0,12.11734,0,,,,,,28.62804,0.1217687,-270,0,-270,0,-270,0,-270,0,-270,0,-270,0,-270,0,-270,0,-270,0,-270,0,-270,0,-270,0,-270,0,-270,0,-270,0,25,0
3385,12/04/2020 18:33:39:772,3417.76,3381,1,3,3.08607,4.199992,12.9615,3.186574,0,12.39162,0,,,,,,28.32314,-0.0383383,-270,0,-270,0,-270,0,-270,0,-270,0,-270,0,-270,0,-270,0,-270,0,-270,0,-270,0,-270,0,-270,0,-270,0,-270,0,25,0
3457,12/04/2020 18:34:51:772,3489.76,3453,1,3,2.792101,4.199882,11.7265,3.245126,0,12.63753,0,,,,,,28.40171,0.0100112,-270,0,-270,0,-270,0,-270,0,-270,0,-270,0,-270,0,-270,0,-270,0,-270,0,-270,0,-270,0,-270,0,-270,0,-270,0,25,0
3529,12/04/2020 18:36:03:772,3561.76,3525,1,3,2.548299,4.200002,10.7029,3.298363,0,12.86113,0,,,,,,27.95951,-0.05177796,-270,0,-270,0,-270,0,-270,0,-270,0,-270,0,-270,0,-270,0,-270,0,-270,0,-270,0,-270,0,-270,0,-270,0,-270,0,25,0
3601,12/04/2020 18:37:15:772,3633.76,3597,1,3,2.3438,4.200043,9.84406,3.347148,0,13.06603,0,,,,,,27.96533,-0.06573856,-270,0,-270,0,-270,0,-270,0,-270,0,-270,0,-270,0,-270,0,-270,0,-270,0,-270,0,-270,0,-270,0,-270,0,-270,0,25,0
3673,12/04/2020 18:38:27:772,3705.76,3669,1,3,2.1769,4.200041,9.14307,3.392242,0,13.25542,0,,,,,,28.13221,0.07536769,-270,0,-270,0,-270,0,-270,0,-270,0,-270,0,-270,0,-270,0,-270,0,-270,0,-270,0,-270,0,-270,0,-270,0,-270,0,25,0
3745,12/04/2020 18:39:39:773,3777.76,3741,1,3,2.037583,4.200023,8.5579,3.43429,0,13.43202,0,,,,,,28.13255,0.08985579,-270,0,-270,0,-270,0,-270,0,-270,0,-270,0,-270,0,-270,0,-270,0,-270,0,-270,0,-270,0,-270,0,-270,0,-270,0,25,0
3817,12/04/2020 18:40:51:773,3849.76,3813,1,3,1.921764,4.199961,8.07133,3.473809,0,13.598,0,,,,,,28.25747,0.09851575,-270,0,-270,0,-270,0,-270,0,-270,0,-270,0,-270,0,-270,0,-270,0,-270,0,-270,0,-270,0,-270,0,-270,0,-270,0,25,0
3889,12/04/2020 18:42:03:772,3921.76,3885,1,3,1.821289,4.200042,7.64949,3.51118,0,13.75496,0,,,,,,28.12886,0.1475292,-270,0,-270,0,-270,0,-270,0,-270,0,-270,0,-270,0,-270,0,-270,0,-270,0,-270,0,-270,0,-270,0,-270,0,-270,0,25,0
3961,12/04/2020 18:43:15:772,3993.76,3957,1,3,1.736221,4.199883,7.29193,3.546713,0,13.9042,0,,,,,,28.06709,0.1107931,-270,0,-270,0,-270,0,-270,0,-270,0,-270,0,-270,0,-270,0,-270,0,-270,0,-270,0,-270,0,-270,0,-270,0,-270,0,25,0
4033,12/04/2020 18:44:27:772,4065.76,4029,1,3,1.660907,4.200075,6.97593,3.580656,0,14.04676,0,,,,,,27.38677,-0.04071832,-270,0,-270,0,-270,0,-270,0,-270,0,-270,0,-270,0,-270,0,-270,0,-270,0,-270,0,-270,0,-270,0,-270,0,-270,0,25,0
4105,12/04/2020 18:45:39:772,4137.76,4101,1,3,1.596652,4.200197,6.70625,3.61321,0,14.18349,0,,,,,,27.67924,0.1553416,-270,0,-270,0,-270,0,-270,0,-270,0,-270,0,-270,0,-270,0,-270,0,-270,0,-270,0,-270,0,-270,0,-270,0,-270,0,25,0
4177,12/04/2020 18:46:51:773,4209.76,4173,1,3,1.53816,4.20009,6.46041,3.644533,0,14.31504,0,,,,,,27.71932,0.158754,-270,0,-270,0,-270,0,-270,0,-270,0,-270,0,-270,0,-270,0,-270,0,-270,0,-270,0,-270,0,-270,0,-270,0,-270,0,25,0
4249,12/04/2020 18:48:03:772,4281.76,4245,1,3,1.483795,4.200126,6.23213,3.674727,0,14.44185,0,,,,,,27.10468,-0.1924723,-270,0,-270,0,-270,0,-270,0,-270,0,-270,0,-270,0,-270,0,-270,0,-270,0,-270,0,-270,0,-270,0,-270,0,-270,0,25,0
4321,12/04/2020 18:49:15:773,4353.756,4317,1,3,1.433413,4.200052,6.02041,3.703877,0,14.56429,0,,,,,,27.75851,0.1363617,-270,0,-270,0,-270,0,-270,0,-270,0,-270,0,-270,0,-270,0,-270,0,-270,0,-270,0,-270,0,-270,0,-270,0,-270,0,25,0
4393,12/04/2020 18:50:27:772,4425.76,4389,1,3,1.38415,4.199982,5.81341,3.73204,0,14.68257,0,,,,,,27.3172,-0.000474453,-270,0,-270,0,-270,0,-270,0,-270,0,-270,0,-270,0,-270,0,-270,0,-270,0,-270,0,-270,0,-270,0,-270,0,-270,0,25,0
4465,12/04/2020 18:51:39:772,4497.76,4461,1,3,1.337757,4.199825,5.61835,3.759246,0,14.79683,0,,6.40092e-06,,,,27.0752,-0.1439184,-270,0,-270,0,-270,0,-270,0,-270,0,-270,0,-270,0,-270,0,-270,0,-270,0,-270,0,-270,0,-270,0,-270,0,-270,0,25,0
4537,12/04/2020 18:52:51:772,4569.76,4533,1,3,1.290467,4.19994,5.41988,3.785511,0,14.90715,0,,-4.26728e-06,,,,27.60388,0.0539571,-270,0,-270,0,-270,0,-270,0,-270,0,-270,0,-270,0,-270,0,-270,0,-270,0,-270,0,-270,0,-270,0,-270,0,-270,0,25,0
4609,12/04/2020 18:54:03:772,4641.76,4605,1,3,1.24446,4.199971,5.2267,3.810845,0,15.01355,0,,9.87797e-06,,,,26.96019,-0.1410502,-270,0,-270,0,-270,0,-270,0,-270,0,-270,0,-270,0,-270,0,-270,0,-270,0,-270,0,-270,0,-270,0,-270,0,-270,0,24.9,0
4681,12/04/2020 18:55:15:772,4713.76,4677,1,3,1.197316,4.200058,5.0288,3.835242,0,15.11602,0,,,,,,26.99298,-0.01477599,-270,0,-270,0,-270,0,-270,0,-270,0,-270,0,-270,0,-270,0,-270,0,-270,0,-270,0,-270,0,-270,0,-270,0,-270,0,25,0
4753,12/04/2020 18:56:27:773,4785.756,4749,1,3,1.150542,4.199999,4.83228,3.858699,0,15.21454,0,,,,,,26.94883,-0.1718742,-270,0,-270,0,-270,0,-270,0,-270,0,-270,0,-270,0,-270,0,-270,0,-270,0,-270,0,-270,0,-270,0,-270,0,-270,0,25,0
4825,12/04/2020 18:57:39:773,4857.756,4821,1,3,1.10294,4.199975,4.63232,3.881209,0,15.30908,0,,,,,,27.4583,0.1480234,-270,0,-270,0,-270,0,-270,0,-270,0,-270,0,-270,0,-270,0,-270,0,-270,0,-270,0,-270,0,-270,0,-270,0,-270,0,25,0
4897,12/04/2020 18:58:51:773,4929.76,4893,1,3,1.055073,4.199972,4.43128,3.902771,0,15.39964,0,,,,,,27.2393,0.1048213,-270,0,-270,0,-270,0,-270,0,-270,0,-270,0,-270,0,-270,0,-270,0,-270,0,-270,0,-270,0,-270,0,-270,0,-270,0,25,0
4969,12/04/2020 19:00:03:772,5001.76,4965,1,3,1.005561,4.199882,4.22324,3.923375,0,15.48618,0,,,,,,26.80214,-0.1277894,-270,0,-270,0,-270,0,-270,0,-270,0,-270,0,-270,0,-270,0,-270,0,-270,0,-270,0,-270,0,-270,0,-270,0,-270,0,25,0
5041,12/04/2020 19:01:15:772,5073.76,5037,1,3,0.958797,4.200029,4.02698,3.943022,0,15.5687,0,,,,,,27.20278,-0.102154,-270,0,-270,0,-270,0,-270,0,-270,0,-270,0,-270,0,-270,0,-270,0,-270,0,-270,0,-270,0,-270,0,-270,0,-270,0,25,0
5113,12/04/2020 19:02:27:772,5145.76,5109,1,3,0.9112886,4.199986,3.8274,3.961708,0,15.64718,0,,,,,,27.79483,0.1517409,-270,0,-270,0,-270,0,-270,0,-270,0,-270,0,-270,0,-270,0,-270,0,-270,0,-270,0,-270,0,-270,0,-270,0,-270,0,25.2,0
5185,12/04/2020 19:03:39:772,5217.76,5181,1,3,0.8642627,4.200075,3.62997,3.979438,0,15.72164,0,,,,,,27.59347,0.06871521,-270,0,-270,0,-270,0,-270,0,-270,0,-270,0,-270,0,-270,0,-270,0,-270,0,-270,0,-270,0,-270,0,-270,0,-270,0,25,0
5257,12/04/2020 19:04:51:772,5289.76,5253,1,3,0.8164085,4.200036,3.42895,3.996219,0,15.79212,0,,,,,,27.70178,-0.02614379,-270,0,-270,0,-270,0,-270,0,-270,0,-270,0,-270,0,-270,0,-270,0,-270,0,-270,0,-270,0,-270,0,-270,0,-270,0,24.8,0
5329,12/04/2020 19:06:03:772,5361.76,5325,1,3,0.7694526,4.199948,3.23166,4.012057,0,15.85864,0,,,,,,28.11679,0.1732087,-270,0,-270,0,-270,0,-270,0,-270,0,-270,0,-270,0,-270,0,-270,0,-270,0,-270,0,-270,0,-270,0,-270,0,-270,0,25,0
5401,12/04/2020 19:07:15:772,5433.76,5397,1,3,0.72316,4.200013,3.03728,4.026973,0,15.92129,0,,,,,,27.37963,-0.1028711,-270,0,-270,0,-270,0,-270,0,-270,0,-270,0,-270,0,-270,0,-270,0,-270,0,-270,0,-270,0,-270,0,-270,0,-270,0,24.9,0
5473,12/04/2020 19:08:27:772,5505.76,5469,1,3,0.6797711,4.199914,2.85498,4.040985,0,15.98014,0,,,,,0,27.36854,-0.1400238,-270,0,-270,0,-270,0,-270,0,-270,0,-270,0,-270,0,-270,0,-270,0,-270,0,-270,0,-270,0,-270,0,-270,0,-270,0,25.1,0
5545,12/04/2020 19:09:39:772,5577.76,5541,1,3,0.6363492,4.200099,2.67273,4.054108,0,16.03526,0,,,,,,27.11516,-0.07898629,-270,0,-270,0,-270,0,-270,0,-270,0,-270,0,-270,0,-270,0,-270,0,-270,0,-270,0,-270,0,-270,0,-270,0,-270,0,25,0
5617,12/04/2020 19:10:51:772,5649.76,5613,1,3,0.5939386,4.200015,2.49455,4.06638,0,16.0868,0,,,,,,27.04284,-0.137561,-270,0,-270,0,-270,0,-270,0,-270,0,-270,0,-270,0,-270,0,-270,0,-270,0,-270,0,-270,0,-270,0,-270,0,-270,0,25,0
5689,12/04/2020 19:12:03:772,5721.76,5685,1,3,0.5527281,4.200037,2.32148,4.077828,0,16.13488,0,,,,,,27.10281,-0.1502174,-270,0,-270,0,-270,0,-270,0,-270,0,-270,0,-270,0,-270,0,-270,0,-270,0,-270,0,-270,0,-270,0,-270,0,-270,0,25,0
5761,12/04/2020 19:13:15:772,5793.76,5757,1,3,0.5152555,4.199981,2.16406,4.088491,0,16.17966,0,,,,,,27.34294,0.1137739,-270,0,-270,0,-270,0,-270,0,-270,0,-270,0,-270,0,-270,0,-270,0,-270,0,-270,0,-270,0,-270,0,-270,0,-270,0,25,0
5833,12/04/2020 19:14:27:772,5865.76,5829,1,3,0.4781896,4.199943,2.00837,4.098404,0,16.2213,0,,,,,,26.96926,0.08097947,-270,0,-270,0,-270,0,-270,0,-270,0,-270,0,-270,0,-270,0,-270,0,-270,0,-270,0,-270,0,-270,0,-270,0,-270,0,25,0
5905,12/04/2020 19:15:39:772,5937.76,5901,1,3,0.4417685,4.19986,1.85537,4.107606,0,16.25995,0,,,,,,27.01285,-0.03545403,-270,0,-270,0,-270,0,-270,0,-270,0,-270,0,-270,0,-270,0,-270,0,-270,0,-270,0,-270,0,-270,0,-270,0,-270,0,25,0
5977,12/04/2020 19:16:51:773,6009.756,5973,1,3,0.4110438,4.200088,1.72642,4.116139,0,16.29579,0,,,,,,26.56035,-0.064134,-270,0,-270,0,-270,0,-270,0,-270,0,-270,0,-270,0,-270,0,-270,0,-270,0,-270,0,-270,0,-270,0,-270,0,-270,0,25,0
6049,12/04/2020 19:18:03:773,6081.76,6045,1,3,0.3793843,4.20003,1.59343,4.124033,0,16.32894,0,,,,,,26.68416,0.02688885,-270,0,-270,0,-270,0,-270,0,-270,0,-270,0,-270,0,-270,0,-270,0,-270,0,-270,0,-270,0,-270,0,-270,0,-270,0,25,0
6121,12/04/2020 19:19:15:772,6153.76,6117,1,3,0.3514208,4.199931,1.47594,4.131336,0,16.35961,0,,,,,,26.48608,-0.05777121,-270,0,-270,0,-270,0,-270,0,-270,0,-270,0,-270,0,-270,0,-270,0,-270,0,-270,0,-270,0,-270,0,-270,0,-270,0,25,0
6193,12/04/2020 19:20:27:773,6225.76,6189,1,3,0.3246043,4.200076,1.36336,4.138083,0,16.38795,0,,,,,,26.71012,-0.1046443,-270,0,-270,0,-270,0,-270,0,-270,0,-270,0,-270,0,-270,0,-270,0,-270,0,-270,0,-270,0,-270,0,-270,0,-270,0,25,0
6265,12/04/2020 19:21:39:773,6297.76,6261,1,3,0.2994081,4.199965,1.2575,4.144312,0,16.41411,0,,,,,,26.98967,0.2105719,-270,0,-270,0,-270,0,-270,0,-270,0,-270,0,-270,0,-270,0,-270,0,-270,0,-270,0,-270,0,-270,0,-270,0,-270,0,25,0
6337,12/04/2020 19:22:51:772,6369.76,6333,1,3,0.2763471,4.200018,1.16066,4.150064,0,16.43827,0,,,,,,26.71445,-0.074898,-270,0,-270,0,-270,0,-270,0,-270,0,-270,0,-270,0,-270,0,-270,0,-270,0,-270,0,-270,0,-270,0,-270,0,-270,0,25,0
6409,12/04/2020 19:24:03:772,6441.76,6405,1,3,0.2560239,4.199802,1.07525,4.155376,0,16.46058,0,,,,,,26.7141,-0.02146661,-270,0,-270,0,-270,0,-270,0,-270,0,-270,0,-270,0,-270,0,-270,0,-270,0,-270,0,-270,0,-270,0,-270,0,-270,0,25.1,0
6481,12/04/2020 19:25:15:772,6513.76,6477,1,3,0.2351142,4.200047,0.987491,4.160274,0,16.48115,0,,,,,,27.0011,0.1449227,-270,0,-270,0,-270,0,-270,0,-270,0,-270,0,-270,0,-270,0,-270,0,-270,0,-270,0,-270,0,-270,0,-270,0,-270,0,25.1,0
6553,12/04/2020 19:26:27:772,6585.76,6549,1,3,0.2175166,4.200132,0.913598,4.164797,0,16.50015,0,,,,,,26.86506,0.1059639,-270,0,-270,0,-270,0,-270,0,-270,0,-270,0,-270,0,-270,0,-270,0,-270,0,-270,0,-270,0,-270,0,-270,0,-270,0,25,0
6625,12/04/2020 19:27:39:772,6657.76,6621,1,3,0.2011221,4.200014,0.844716,4.168972,0,16.51769,0,,-1.50146e-05,,,,27.07498,0.1126236,-270,0,-270,0,-270,0,-270,0,-270,0,-270,0,-270,0,-270,0,-270,0,-270,0,-270,0,-270,0,-270,0,-270,0,-270,0,25,0
6697,12/04/2020 19:28:51:773,6729.76,6693,1,3,0.1862466,4.200148,0.782263,4.172834,0,16.5339,0,,4.89943e-06,,,,27.35401,0.03215015,-270,0,-270,0,-270,0,-270,0,-270,0,-270,0,-270,0,-270,0,-270,0,-270,0,-270,0,-270,0,-270,0,-270,0,-270,0,25,0
6769,12/04/2020 19:30:03:772,6801.76,6765,1,3,0.173137,4.199988,0.727173,4.176402,0,16.54889,0,,,,,,26.8199,-0.1318687,-270,0,-270,0,-270,0,-270,0,-270,0,-270,0,-270,0,-270,0,-270,0,-270,0,-270,0,-270,0,-270,0,-270,0,-270,0,25,0
6841,12/04/2020 19:31:15:772,6873.76,6837,1,3,0.1595996,4.200089,0.670333,4.179705,0,16.56276,0,,,,,,27.26814,-0.1307082,-270,0,-270,0,-270,0,-270,0,-270,0,-270,0,-270,0,-270,0,-270,0,-270,0,-270,0,-270,0,-270,0,-270,0,-270,0,25,0
6913,12/04/2020 19:32:27:773,6945.76,6909,1,3,0.1479761,4.199833,0.621475,4.182763,0,16.57561,0,,,,,,27.05307,-0.1079583,-270,0,-270,0,-270,0,-270,0,-270,0,-270,0,-270,0,-270,0,-270,0,-270,0,-270,0,-270,0,-270,0,-270,0,-270,0,25,0
6985,12/04/2020 19:33:39:772,7017.76,6981,1,3,0.1366059,4.200021,0.573748,4.1856,0,16.58752,0,,,,,,27.42294,0.1344043,-270,0,-270,0,-270,0,-270,0,-270,0,-270,0,-270,0,-270,0,-270,0,-270,0,-270,0,-270,0,-270,0,-270,0,-270,0,25,0
7057,12/04/2020 19:34:51:772,7089.76,7053,1,3,0.1270027,4.200005,0.533412,4.18823,0,16.59857,0,,,,,,27.01228,-0.1140434,-270,0,-270,0,-270,0,-270,0,-270,0,-270,0,-270,0,-270,0,-270,0,-270,0,-270,0,-270,0,-270,0,-270,0,-270,0,25,0
7129,12/04/2020 19:36:03:772,7161.76,7125,1,3,0.1187147,4.199984,0.4986,4.190676,0,16.60884,0,,,,,,27.13225,-0.04226089,-270,0,-270,0,-270,0,-270,0,-270,0,-270,0,-270,0,-270,0,-270,0,-270,0,-270,0,-270,0,-270,0,-270,0,-270,0,25,0
7201,12/04/2020 19:37:15:772,7233.76,7197,1,3,0.1093495,4.200103,0.459279,4.192948,0,16.61838,0,,,,,,27.25894,-0.1063001,-270,0,-270,0,-270,0,-270,0,-270,0,-270,0,-270,0,-270,0,-270,0,-270,0,-270,0,-270,0,-270,0,-270,0,-270,0,25,0
7273,12/04/2020 19:38:27:772,7305.76,7269,1,3,0.1020546,4.19987,0.428616,4.195066,0,16.62728,0,,,,,,27.60776,0.01111329,-270,0,-270,0,-270,0,-270,0,-270,0,-270,0,-270,0,-270,0,-270,0,-270,0,-270,0,-270,0,-270,0,-270,0,-270,0,25,0
7345,12/04/2020 19:39:39:772,7377.76,7341,1,3,0.09581515,4.199906,0.402415,4.197047,0,16.6356,0,,,,,,27.43831,0.0344485,-270,0,-270,0,-270,0,-270,0,-270,0,-270,0,-270,0,-270,0,-270,0,-270,0,-270,0,-270,0,-270,0,-270,0,-270,0,25,0
7417,12/04/2020 19:40:51:772,7449.76,7413,1,3,0.09005751,4.199861,0.378229,4.198893,0,16.64335,0,,,,,,27.86352,0.209524,-270,0,-270,0,-270,0,-270,0,-270,0,-270,0,-270,0,-270,0,-270,0,-270,0,-270,0,-270,0,-270,0,-270,0,-270,0,25,0
7489,12/04/2020 19:42:03:772,7521.76,7485,1,3,0.08360001,4.199939,0.351115,4.200619,0,16.6506,0,,,,,,27.56516,0.007556677,-270,0,-270,0,-270,0,-270,0,-270,0,-270,0,-270,0,-270,0,-270,0,-270,0,-270,0,-270,0,-270,0,-270,0,-270,0,25.1,0
7561,12/04/2020 19:43:15:772,7593.76,7557,1,3,0.07944676,4.199976,0.333674,4.202235,0,16.65739,0,,,,0,,27.96039,0.1293421,-270,0,-270,0,-270,0,-270,0,-270,0,-270,0,-270,0,-270,0,-270,0,-270,0,-270,0,-270,0,-270,0,-270,0,-270,0,24.8,0
7633,12/04/2020 19:44:27:772,7665.76,7629,1,3,0.07311089,4.200161,0.307078,4.203753,0,16.66377,0,,,,,,27.97839,-0.1119679,-270,0,-270,0,-270,0,-270,0,-270,0,-270,0,-270,0,-270,0,-270,0,-270,0,-270,0,-270,0,-270,0,-270,0,-270,0,24.9,0
7705,12/04/2020 19:45:39:772,7737.76,7701,1,3,0.0686914,4.199944,0.2885,4.205184,0,16.66978,0,,,,,,28.85545,0.2009809,-270,0,-270,0,-270,0,-270,0,-270,0,-270,0,-270,0,-270,0,-270,0,-270,0,-270,0,-270,0,-270,0,-270,0,-270,0,25.1,0
7777,12/04/2020 19:46:51:772,7809.76,7773,1,3,0.0656396,4.200045,0.275689,4.206531,0,16.67543,0,,,,,,28.86456,0.1377422,-270,0,-270,0,-270,0,-270,0,-270,0,-270,0,-270,0,-270,0,-270,0,-270,0,-270,0,-270,0,-270,0,-270,0,-270,0,25,0
7849,12/04/2020 19:48:03:773,7881.76,7845,1,3,0.06209535,4.199855,0.260791,4.207803,0,16.68077,0,,,,,,28.8603,0.1122004,-270,0,-270,0,-270,0,-270,0,-270,0,-270,0,-270,0,-270,0,-270,0,-270,0,-270,0,-270,0,-270,0,-270,0,-270,0,24.9,0
7921,12/04/2020 19:49:15:773,7953.756,7917,1,3,0.05818307,4.200039,0.244371,4.209008,0,16.68583,0,,,,,,28.54341,-0.005182028,-270,0,-270,0,-270,0,-270,0,-270,0,-270,0,-270,0,-270,0,-270,0,-270,0,-270,0,-270,0,-270,0,-270,0,-270,0,25,0
7993,12/04/2020 19:50:27:773,8025.76,7989,1,3,0.05474081,4.20001,0.229912,4.210145,0,16.69061,0,,,,,,28.73182,0.03390074,-270,0,-270,0,-270,0,-270,0,-270,0,-270,0,-270,0,-270,0,-270,0,-270,0,-270,0,-270,0,-270,0,-270,0,-270,0,25,0
8065,12/04/2020 19:51:39:772,8097.76,8061,1,3,0.05260527,4.199951,0.22094,4.211226,0,16.69515,0,,,,,,28.06179,-0.03030837,-270,0,-270,0,-270,0,-270,0,-270,0,-270,0,-270,0,-270,0,-270,0,-270,0,-270,0,-270,0,-270,0,-270,0,-270,0,24.9,0
8137,12/04/2020 19:52:54:167,8172.15,6.0001,1,4,0,4.198578,0,4.212204,0,16.69926,0,,,,,,28.49203,0.1948291,-270,0,-270,0,-270,0,-270,0,-270,0,-270,0,-270,0,-270,0,-270,0,-270,0,-270,0,-270,0,-270,0,-270,0,-270,0,25,0
8209,12/04/2020 19:55:18:167,8316.15,150.0003,1,4,0,4.196478,0,4.212204,0,16.69926,0,,,,,,27.71397,-0.1540834,-270,0,-270,0,-270,0,-270,0,-270,0,-270,0,-270,0,-270,0,-270,0,-270,0,-270,0,-270,0,-270,0,-270,0,-270,0,25,0
8281,12/04/2020 19:57:42:167,8460.15,294.0005,1,4,0,4.195623,0,4.212204,0,16.69926,0,,,,,,27.94003,0.08045614,-270,0,-270,0,-270,0,-270,0,-270,0,-270,0,-270,0,-270,0,-270,0,-270,0,-270,0,-270,0,-270,0,-270,0,-270,0,25,0
8353,12/04/2020 20:00:06:167,8604.15,438.0004,1,4,0,4.194946,0,4.212204,0,16.69926,0,,,,,,27.12849,-0.1208198,-270,0,-270,0,-270,0,-270,0,-270,0,-270,0,-270,0,-270,0,-270,0,-270,0,-270,0,-270,0,-270,0,-270,0,-270,0,25,0
8425,12/04/2020 20:02:30:167,8748.15,582.0003,1,4,0,4.194139,0,4.212204,0,16.69926,0,,-1.38294e-05,,,,27.21522,-0.1293659,-270,0,-270,0,-270,0,-270,0,-270,0,-270,0,-270,0,-270,0,-270,0,-270,0,-270,0,-270,0,-270,0,-270,0,-270,0,25,0
8497,12/04/2020 20:23:09:229,9987.212,21.0006,1,6,-5.00174,4.003935,-20.0266,4.212204,0.02916666,16.69926,0.1173974,,-0.00184146,,,,26.61474,-0.08639753,-270,0,-270,0,-270,0,-270,0,-270,0,-270,0,-270,0,-270,0,-270,0,-270,0,-270,0,-270,0,-270,0,-270,0,-270,0,25,0
8569,12/04/2020 20:24:21:228,10059.2,93.0002,1,6,-5.001915,3.945153,-19.7333,4.212204,0.129184,16.69926,0.5144522,,-0.000628518,,,,26.86471,-0.1278681,-270,0,-270,0,-270,0,-270,0,-270,0,-270,0,-270,0,-270,0,-270,0,-270,0,-270,0,-270,0,-270,0,-270,0,-270,0,25,0
8641,12/04/2020 20:25:33:229,10131.2,165.0007,1,6,-5.002419,3.91947,-19.6068,4.212204,0.2292102,16.69926,0.9077153,,,,4.68197,,27.51091,0.1040643,-270,0,-270,0,-270,0,-270,0,-270,0,-270,0,-270,0,-270,0,-270,0,-270,0,-270,0,-270,0,-270,0,-270,0,-270,0,25,0
8713,12/04/2020 20:26:45:228,10203.2,237,1,6,-5.001709,3.901152,-19.5124,4.212204,0.3292277,16.69926,1.298786,,,,,,27.69423,-0.08081734,-270,0,-270,0,-270,0,-270,0,-270,0,-270,0,-270,0,-270,0,-270,0,-270,0,-270,0,-270,0,-270,0,-270,0,-270,0,25,0
8785,12/04/2020 20:27:57:228,10275.2,309.0004,1,6,-5.001991,3.88592,-19.4373,4.212204,0.4292492,16.69926,1.688212,,,,,,27.64971,-0.0007128716,-270,0,-270,0,-270,0,-270,0,-270,0,-270,0,-270,0,-270,0,-270,0,-270,0,-270,0,-270,0,-270,0,-270,0,-270,0,25,0
8857,12/04/2020 20:29:09:228,10347.2,381.0002,1,6,-5.001518,3.871307,-19.3624,4.212204,0.5292721,16.69926,2.076156,,,,,,27.65391,-0.2065921,-270,0,-270,0,-270,0,-270,0,-270,0,-270,0,-270,0,-270,0,-270,0,-270,0,-270,0,-270,0,-270,0,-270,0,-270,0,25,0
8929,12/04/2020 20:30:21:228,10419.2,453.0004,1,6,-5.001152,3.85663,-19.2876,4.212204,0.6292995,16.69926,2.462657,,,,,,28.52575,0.0215143,-270,0,-270,0,-270,0,-270,0,-270,0,-270,0,-270,0,-270,0,-270,0,-270,0,-270,0,-270,0,-270,0,-270,0,-270,0,25,0
9001,12/04/2020 20:31:33:229,10491.2,525.0009,1,6,-5.001778,3.840309,-19.2084,4.212204,0.7293225,16.69926,2.847613,,-0.000257436,,,,28.55294,0.02536833,-270,0,-270,0,-270,0,-270,0,-270,0,-270,0,-270,0,-270,0,-270,0,-270,0,-270,0,-270,0,-270,0,-270,0,-270,0,25,0
9073,12/04/2020 20:32:45:228,10563.2,597.0001,1,6,-5.001801,3.822593,-19.1198,4.212204,0.8293414,16.69926,3.230866,,,,,,28.13479,-0.09239852,-270,0,-270,0,-270,0,-270,0,-270,0,-270,0,-270,0,-270,0,-270,0,-270,0,-270,0,-270,0,-270,0,-270,0,-270,0,25,0
9145,12/04/2020 20:33:57:228,10635.2,669.0002,1,6,-5.002083,3.802078,-19.0183,4.212204,0.929361,16.69926,3.612208,,-0.000277241,,,,28.49624,0.114221,-270,0,-270,0,-270,0,-270,0,-270,0,-270,0,-270,0,-270,0,-270,0,-270,0,-270,0,-270,0,-270,0,-270,0,-270,0,25,0
9217,12/04/2020 20:35:09:229,10707.212,741.0006,1,6,-5.002129,3.77968,-18.9064,4.212204,1.029392,16.69926,3.991435,,,,,,28.34818,-0.1109976,-270,0,-270,0,-270,0,-270,0,-270,0,-270,0,-270,0,-270,0,-270,0,-270,0,-270,0,-270,0,-270,0,-270,0,-270,0,25,0
9289,12/04/2020 20:36:21:229,10779.2,813.0007,1,6,-5.002258,3.755907,-18.788,4.212204,1.129414,16.69926,4.368299,,,,,,29.1393,0.06980717,-270,0,-270,0,-270,0,-270,0,-270,0,-270,0,-270,0,-270,0,-270,0,-270,0,-270,0,-270,0,-270,0,-270,0,-270,0,25,0
9361,12/04/2020 20:37:33:228,10851.2,885.0003,1,6,-5.00222,3.732224,-18.6694,4.212204,1.229438,16.69926,4.742778,,-0.000264813,,,,29.13895,0.1904231,-270,0,-270,0,-270,0,-270,0,-270,0,-270,0,-270,0,-270,0,-270,0,-270,0,-270,0,-270,0,-270,0,-270,0,-270,0,25,0
9433,12/04/2020 20:38:45:228,10923.2,957.0003,1,6,-5.002304,3.709021,-18.5537,4.212204,1.329462,16.69926,5.114912,,,,,,29.14815,0.1242989,-270,0,-270,0,-270,0,-270,0,-270,0,-270,0,-270,0,-270,0,-270,0,-270,0,-270,0,-270,0,-270,0,-270,0,-270,0,25,0
9505,12/04/2020 20:39:57:228,10995.2,1029,1,6,-5.002838,3.68692,-18.4451,4.212204,1.429495,16.69926,5.48482,,,,,,28.53764,-0.1461703,-270,0,-270,0,-270,0,-270,0,-270,0,-270,0,-270,0,-270,0,-270,0,-270,0,-270,0,-270,0,-270,0,-270,0,-270,0,25,0
9577,12/04/2020 20:41:09:228,11067.2,1101,1,6,-5.002663,3.665601,-18.3378,4.212204,1.529514,16.69926,5.852517,,,,,,29.26119,0.1626945,-270,0,-270,0,-270,0,-270,0,-270,0,-270,0,-270,0,-270,0,-270,0,-270,0,-270,0,-270,0,-270,0,-270,0,-270,0,25,0
9649,12/04/2020 20:42:21:228,11139.2,1173,1,6,-5.002319,3.644282,-18.2299,4.212204,1.629533,16.69926,6.218106,,,,,,28.81642,-0.1267868,-270,0,-270,0,-270,0,-270,0,-270,0,-270,0,-270,0,-270,0,-270,0,-270,0,-270,0,-270,0,-270,0,-270,0,-270,0,25,0
9721,12/04/2020 20:43:33:228,11211.2,1245,1,6,-5.00238,3.624107,-18.1292,4.212204,1.729545,16.69926,6.581593,,,,,0.206552,28.81594,-0.1417148,-270,0,-270,0,-270,0,-270,0,-270,0,-270,0,-270,0,-270,0,-270,0,-270,0,-270,0,-270,0,-270,0,-270,0,-270,0,25,0
9793,12/04/2020 20:44:45:229,11283.2,1317,1,6,-5.002296,3.60323,-18.0244,4.212204,1.829572,16.69926,6.943053,,,,,,28.91622,0.04713953,-270,0,-270,0,-270,0,-270,0,-270,0,-270,0,-270,0,-270,0,-270,0,-270,0,-270,0,-270,0,-270,0,-270,0,-270,0,25,0
9865,12/04/2020 20:45:57:228,11355.2,1389,1,6,-5.002167,3.581797,-17.9167,4.212204,1.929597,16.69926,7.302401,,,,,,29.33903,0.08541286,-270,0,-270,0,-270,0,-270,0,-270,0,-270,0,-270,0,-270,0,-270,0,-270,0,-270,0,-270,0,-270,0,-270,0,-270,0,25,0
9937,12/04/2020 20:47:09:229,11427.2,1461,1,6,-5.002197,3.560059,-17.8081,4.212204,2.029622,16.69926,7.659591,,,,,,28.84488,-0.1175123,-270,0,-270,0,-270,0,-270,0,-270,0,-270,0,-270,0,-270,0,-270,0,-270,0,-270,0,-270,0,-270,0,-270,0,-270,0,25,0
10009,12/04/2020 20:48:21:228,11499.2,1533,1,6,-5.002121,3.537573,-17.6954,4.212204,2.129642,16.69926,8.014552,,,,4.28164,,29.42186,-0.03225684,-270,0,-270,0,-270,0,-270,0,-270,0,-270,0,-270,0,-270,0,-270,0,-270,0,-270,0,-270,0,-270,0,-270,0,-270,0,25,0
10081,12/04/2020 20:49:33:228,11571.2,1605,1,6,-5.002609,3.514888,-17.5836,4.212204,2.229664,16.69926,8.367271,,,,,,29.52073,0.1323622,-270,0,-270,0,-270,0,-270,0,-270,0,-270,0,-270,0,-270,0,-270,0,-270,0,-270,0,-270,0,-270,0,-270,0,-270,0,25,0
10153,12/04/2020 20:50:45:228,11643.2,1677,1,6,-5.002434,3.49252,-17.4711,4.212204,2.329694,16.69926,8.717754,,-0.000340941,,4.23572,,29.25782,-0.1036042,-270,0,-270,0,-270,0,-270,0,-270,0,-270,0,-270,0,-270,0,-270,0,-270,0,-270,0,-270,0,-270,0,-270,0,-270,0,25,0
10225,12/04/2020 20:51:57:228,11715.2,1749,1,6,-5.002472,3.47082,-17.3627,4.212204,2.429725,16.69926,9.066018,,,,,,28.92072,-0.22156,-270,0,-270,0,-270,0,-270,0,-270,0,-270,0,-270,0,-270,0,-270,0,-270,0,-270,0,-270,0,-270,0,-270,0,-270,0,25,0
10297,12/04/2020 20:53:09:229,11787.212,1821,1,6,-5.002472,3.449762,-17.2573,4.212204,2.529756,16.69926,9.412141,,,,,,29.69319,0.0593698,-270,0,-270,0,-270,0,-270,0,-270,0,-270,0,-270,0,-270,0,-270,0,-270,0,-270,0,-270,0,-270,0,-270,0,-270,0,25,0
10369,12/04/2020 20:54:21:229,11859.212,1893,1,6,-5.00238,3.429935,-17.1578,4.212204,2.629793,16.69926,9.756247,,,,,,29.04819,-0.2262712,-270,0,-270,0,-270,0,-270,0,-270,0,-270,0,-270,0,-270,0,-270,0,-270,0,-270,0,-270,0,-270,0,-270,0,-270,0,25,0
10441,12/04/2020 20:55:33:229,11931.212,1965,1,6,-5.002243,3.411474,-17.065,4.212204,2.729823,16.69926,10.09841,,-0.000287431,,,,29.86112,0.07303059,-270,0,-270,0,-270,0,-270,0,-270,0,-270,0,-270,0,-270,0,-270,0,-270,0,-270,0,-270,0,-270,0,-270,0,-270,0,25,0
10513,12/04/2020 20:56:45:229,12003.212,2037,1,6,-5.002487,3.39385,-16.9777,4.212204,2.829858,16.69926,10.43879,,,,,,29.6183,0.1845002,-270,0,-270,0,-270,0,-270,0,-270,0,-270,0,-270,0,-270,0,-270,0,-270,0,-270,0,-270,0,-270,0,-270,0,-270,0,25,0
10585,12/04/2020 20:57:57:229,12075.212,2109,1,6,-5.002243,3.377073,-16.8929,4.212204,2.929893,16.69926,10.77746,,,,,,29.34047,-0.06789148,-270,0,-270,0,-270,0,-270,0,-270,0,-270,0,-270,0,-270,0,-270,0,-270,0,-270,0,-270,0,-270,0,-270,0,-270,0,25,0
10657,12/04/2020 20:59:09:228,12147.2,2181,1,6,-5.002449,3.361003,-16.8132,4.212204,3.029926,16.69926,11.11449,,,,,,29.80098,0.08517325,-270,0,-270,0,-270,0,-270,0,-270,0,-270,0,-270,0,-270,0,-270,0,-270,0,-270,0,-270,0,-270,0,-270,0,-270,0,25,0
10729,12/04/2020 21:00:21:228,12219.2,2253,1,6,-5.002663,3.345211,-16.735,4.212204,3.12996,16.69926,11.44991,,,,,,29.47973,0.01613438,-270,0,-270,0,-270,0,-270,0,-270,0,-270,0,-270,0,-270,0,-270,0,-270,0,-270,0,-270,0,-270,0,-270,0,-270,0,25,0
10801,12/04/2020 21:01:33:228,12291.2,2325,1,6,-5.002342,3.329455,-16.6551,4.212204,3.229997,16.69926,11.78376,,-0.000282985,,,,29.34738,-0.02520084,-270,0,-270,0,-270,0,-270,0,-270,0,-270,0,-270,0,-270,0,-270,0,-270,0,-270,0,-270,0,-270,0,-270,0,-270,0,25,0
10873,12/04/2020 21:02:45:229,12363.2,2397,1,6,-5.002357,3.313624,-16.5759,4.212204,3.330035,16.69926,12.11604,,,,,,29.67454,0.03948271,-270,0,-270,0,-270,0,-270,0,-270,0,-270,0,-270,0,-270,0,-270,0,-270,0,-270,0,-270,0,-270,0,-270,0,-270,0,25,0
10945,12/04/2020 21:03:57:229,12435.2,2469,1,6,-5.003395,3.297377,-16.4981,4.212204,3.430053,16.69926,12.44664,,,,,,29.45206,-0.1415628,-270,0,-270,0,-270,0,-270,0,-270,0,-270,0,-270,0,-270,0,-270,0,-270,0,-270,0,-270,0,-270,0,-270,0,-270,0,25,0
11017,12/04/2020 21:05:09:228,12507.2,2541,1,6,-5.002357,3.280421,-16.4098,4.212204,3.530085,16.69926,12.77564,,,,,,29.84261,0.140692,-270,0,-270,0,-270,0,-270,0,-270,0,-270,0,-270,0,-270,0,-270,0,-270,0,-270,0,-270,0,-270,0,-270,0,-270,0,25,0
11089,12/04/2020 21:06:21:228,12579.2,2613,1,6,-5.002525,3.262842,-16.3224,4.212204,3.630109,16.69926,13.10289,,,,,0.178339,30.21117,0.02340615,-270,0,-270,0,-270,0,-270,0,-270,0,-270,0,-270,0,-270,0,-270,0,-270,0,-270,0,-270,0,-270,0,-270,0,-270,0,25,0
11161,12/04/2020 21:07:33:228,12651.2,2685,1,6,-5.002472,3.243839,-16.2272,4.212204,3.730147,16.69926,13.42837,,,,,,30.47532,0.07391751,-270,0,-270,0,-270,0,-270,0,-270,0,-270,0,-270,0,-270,0,-270,0,-270,0,-270,0,-270,0,-270,0,-270,0,-270,0,25,0
11233,12/04/2020 21:08:45:229,12723.2,2757,1,6,-5.002678,3.223572,-16.1265,4.212204,3.830185,16.69926,13.75188,,,,,,29.61975,-0.2028751,-270,0,-270,0,-270,0,-270,0,-270,0,-270,0,-270,0,-270,0,-270,0,-270,0,-270,0,-270,0,-270,0,-270,0,-270,0,25,0
11305,12/04/2020 21:09:57:228,12795.2,2829,1,6,-5.002739,3.201086,-16.0142,4.212204,3.93022,16.69926,14.07324,,,,4.17652,,30.33027,0.108791,-270,0,-270,0,-270,0,-270,0,-270,0,-270,0,-270,0,-270,0,-270,0,-270,0,-270,0,-270,0,-270,0,-270,0,-270,0,25,0
11377,12/04/2020 21:11:09:228,12867.2,2901,1,6,-5.0028,3.175168,-15.8847,4.212204,4.030249,16.69926,14.39216,,,,,,30.15259,0.04346013,-270,0,-270,0,-270,0,-270,0,-270,0,-270,0,-270,0,-270,0,-270,0,-270,0,-270,0,-270,0,-270,0,-270,0,-270,0,25,0
11449,12/04/2020 21:12:21:229,12939.212,2973,1,6,-5.003502,3.144333,-15.7327,4.212204,4.130285,16.69926,14.70829,,,,,,29.96181,-0.1443493,-270,0,-270,0,-270,0,-270,0,-270,0,-270,0,-270,0,-270,0,-270,0,-270,0,-270,0,-270,0,-270,0,-270,0,-270,0,25,0
11521,12/04/2020 21:13:33:229,13011.2,3045,1,6,-5.002472,3.106668,-15.541,4.212204,4.230329,16.69926,15.02105,,-0.000545692,,,,30.50084,0.1273954,-270,0,-270,0,-270,0,-270,0,-270,0,-270,0,-270,0,-270,0,-270,0,-270,0,-270,0,-270,0,-270,0,-270,0,-270,0,25,0
11593,12/04/2020 21:14:45:228,13083.2,3117,1,6,-5.002907,3.058722,-15.3025,4.212204,4.33037,16.69926,15.32956,,,,,,30.67118,0.1202154,-270,0,-270,0,-270,0,-270,0,-270,0,-270,0,-270,0,-270,0,-270,0,-270,0,-270,0,-270,0,-270,0,-270,0,-270,0,25,0
11665,12/04/2020 21:15:57:229,13155.2,3189,1,6,-5.002754,2.997518,-14.9958,4.212204,4.430406,16.69926,15.63259,,,,,,30.85414,0.1574874,-270,0,-270,0,-270,0,-270,0,-270,0,-270,0,-270,0,-270,0,-270,0,-270,0,-270,0,-270,0,-270,0,-270,0,-270,0,25,0
11737,12/04/2020 21:17:09:229,13227.2,3261,1,6,-5.003258,2.924088,-14.63,4.212204,4.530449,16.69926,15.9289,,-0.00126982,,1.25322,,30.38323,-0.07976115,-270,0,-270,0,-270,0,-270,0,-270,0,-270,0,-270,0,-270,0,-270,0,-270,0,-270,0,-270,0,-270,0,-270,0,-270,0,25,0
11809,12/04/2020 21:18:21:228,13299.2,3333,1,6,-5.003067,2.834811,-14.1827,4.212204,4.630491,16.69926,16.21712,,-0.00131989,,,,30.54064,-0.1070112,-270,0,-270,0,-270,0,-270,0,-270,0,-270,0,-270,0,-270,0,-270,0,-270,0,-270,0,-270,0,-270,0,-270,0,-270,0,25,0
11881,12/04/2020 21:19:33:228,13371.2,3405,1,6,-5.003067,2.711955,-13.5681,4.212204,4.730526,16.69926,16.49497,,-0.00250205,,0.665468,,31.1875,0.01793146,-270,0,-270,0,-270,0,-270,0,-270,0,-270,0,-270,0,-270,0,-270,0,-270,0,-270,0,-270,0,-270,0,-270,0,-270,0,25,0
11953,12/04/2020 21:20:44:904,13442.9,2.0005,1,7,0,2.727097,0,4.212204,4.827286,16.69926,16.74837,,0.0172934,,,,31.26377,-0.1498127,-270,0,-270,0,-270,0,-270,0,-270,0,-270,0,-270,0,-270,0,-270,0,-270,0,-270,0,-270,0,-270,0,-270,0,-270,0,25,0
12025,12/04/2020 21:21:56:904,13514.9,74.0006,1,7,0,2.889829,0,4.212204,4.827286,16.69926,16.74837,,0.000607515,,,,30.17954,-0.2063054,-270,0,-270,0,-270,0,-270,0,-270,0,-270,0,-270,0,-270,0,-270,0,-270,0,-270,0,-270,0,-270,0,-270,0,-270,0,25,0
12097,12/04/2020 21:23:08:903,13586.9,146.0003,1,7,0,2.913649,0,4.212204,4.827286,16.69926,16.74837,,,,,,29.48246,0.0007909536,-270,0,-270,0,-270,0,-270,0,-270,0,-270,0,-270,0,-270,0,-270,0,-270,0,-270,0,-270,0,-270,0,-270,0,-270,0,25,0
12169,12/04/2020 21:24:20:903,13658.9,218.0002,1,7,0,2.925033,0,4.212204,4.827286,16.69926,16.74837,,,,,,29.13153,0.03318787,-270,0,-270,0,-270,0,-270,0,-270,0,-270,0,-270,0,-270,0,-270,0,-270,0,-270,0,-270,0,-270,0,-270,0,-270,0,25,0
12241,12/04/2020 21:25:32:903,13730.9,290.0003,1,7,0,2.932247,0,4.212204,4.827286,16.69926,16.74837,,,,,,28.69339,-0.1079923,-270,0,-270,0,-270,0,-270,0,-270,0,-270,0,-270,0,-270,0,-270,0,-270,0,-270,0,-270,0,-270,0,-270,0,-270,0,25,0
12313,12/04/2020 21:26:44:903,13802.9,362.0001,1,7,0,2.937806,0,4.212204,4.827286,16.69926,16.74837,,,,,,28.09141,-0.09091914,-270,0,-270,0,-270,0,-270,0,-270,0,-270,0,-270,0,-270,0,-270,0,-270,0,-270,0,-270,0,-270,0,-270,0,-270,0,25,0
12385,12/04/2020 21:27:56:904,13874.9,434.0005,1,7,0,2.942185,0,4.212204,4.827286,16.69926,16.74837,,,,,,28.41972,0.1434672,-270,0,-270,0,-270,0,-270,0,-270,0,-270,0,-270,0,-270,0,-270,0,-270,0,-270,0,-270,0,-270,0,-270,0,-270,0,25,0
12457,12/04/2020 21:29:08:904,13946.9,506.0006,1,7,0,2.945715,0,4.212204,4.827286,16.69926,16.74837,,,,,,27.85237,-0.1781303,-270,0,-270,0,-270,0,-270,0,-270,0,-270,0,-270,0,-270,0,-270,0,-270,0,-270,0,-270,0,-270,0,-270,0,-270,0,25,0
12529,12/04/2020 21:30:20:904,14018.9,578.0006,1,7,0,2.948967,0,4.212204,4.827286,16.69926,16.74837,,,,,,27.41596,-0.1990813,-270,0,-270,0,-270,0,-270,0,-270,0,-270,0,-270,0,-270,0,-270,0,-270,0,-270,0,-270,0,-270,0,-270,0,-270,0,25,0
12601,12/04/2020 21:41:38:965,14696.9,56.0002,1,9,3.396042,3.291883,11.1794,4.265015,4.827286,16.86864,16.74837,,0.00225346,,0.41957,,27.31492,-0.006221533,-270,0,-270,0,-270,0,-270,0,-270,0,-270,0,-270,0,-270,0,-270,0,-270,0,-270,0,-270,0,-270,0,-270,0,-270,0,25.1,0
12673,12/04/2020 21:44:02:966,14840.9,200.0005,1,9,3.395699,3.476273,11.8044,4.400809,4.827286,17.33047,16.74837,,0.000624414,,,0.809449,27.32951,0.1005161,-270,0,-270,0,-270,0,-270,0,-270,0,-270,0,-270,0,-270,0,-270,0,-270,0,-270,0,-270,0,-270,0,-270,0,-270,0,25,0
12745,12/04/2020 21:46:26:966,14984.949,344.0003,1,9,3.395027,3.536849,12.0077,4.536596,4.827286,17.80751,16.74837,,0.000188596,,,,27.28594,-0.09565055,-270,0,-270,0,-270,0,-270,0,-270,0,-270,0,-270,0,-270,0,-270,0,-270,0,-270,0,-270,0,-270,0,-270,0,-270,0,25,0
12817,12/04/2020 21:48:50:966,15128.9,488.0004,1,9,3.395187,3.565173,12.1044,4.672384,4.827286,18.28967,16.74837,,,,,,28.00604,-0.04302442,-270,0,-270,0,-270,0,-270,0,-270,0,-270,0,-270,0,-270,0,-270,0,-270,0,-270,0,-270,0,-270,0,-270,0,-270,0,25,0
12889,12/04/2020 21:51:14:966,15272.9,632.0005,1,9,3.394707,3.594615,12.2027,4.808177,4.827286,18.7758,16.74837,,,,,,27.92156,-0.1576668,-270,0,-270,0,-270,0,-270,0,-270,0,-270,0,-270,0,-270,0,-270,0,-270,0,-270,0,-270,0,-270,0,-270,0,-270,0,25,0
12961,12/04/2020 21:53:38:966,15416.9,776.0006,1,9,2.802948,3.599941,10.0904,4.933239,4.827286,19.22595,16.74837,,,,,,28.46106,0.1833737,-270,0,-270,0,-270,0,-270,0,-270,0,-270,0,-270,0,-270,0,-270,0,-270,0,-270,0,-270,0,-270,0,-270,0,-270,0,25,0
13033,12/04/2020 21:56:02:966,15560.949,920.0003,1,9,2.31684,3.599896,8.34038,5.034946,4.827286,19.5921,16.74837,,,,,,28.29061,0.2072328,-270,0,-270,0,-270,0,-270,0,-270,0,-270,0,-270,0,-270,0,-270,0,-270,0,-270,0,-270,0,-270,0,-270,0,-270,0,25,0
13105,12/04/2020 21:58:26:965,15704.9,1064,1,9,1.929412,3.599997,6.94588,5.119451,4.827286,19.89632,16.74837,,,,,,27.89,0.126434,-270,0,-270,0,-270,0,-270,0,-270,0,-270,0,-270,0,-270,0,-270,0,-270,0,-270,0,-270,0,-270,0,-270,0,-270,0,25,0
13177,12/04/2020 22:00:50:965,15848.9,1208,1,9,1.600914,3.600002,5.76329,5.18977,4.827286,20.14947,16.74837,,,,,,27.65473,-0.1191783,-270,0,-270,0,-270,0,-270,0,-270,0,-270,0,-270,0,-270,0,-270,0,-270,0,-270,0,-270,0,-270,0,-270,0,-270,0,25,0
13249,12/04/2020 22:03:14:965,15992.9,1352,1,9,1.327119,3.599922,4.77752,5.248085,4.827286,20.3594,16.74837,,1.28416e-05,,,,27.16019,-0.1186436,-270,0,-270,0,-270,0,-270,0,-270,0,-270,0,-270,0,-270,0,-270,0,-270,0,-270,0,-270,0,-270,0,-270,0,-270,0,25,0
13321,12/04/2020 22:05:38:966,16136.9,1496,1,9,1.102733,3.600027,3.96987,5.296445,4.827286,20.53349,16.74837,,8.49526e-06,,0,,27.15715,0.06978452,-270,0,-270,0,-270,0,-270,0,-270,0,-270,0,-270,0,-270,0,-270,0,-270,0,-270,0,-270,0,-270,0,-270,0,-270,0,25,0
13393,12/04/2020 22:08:02:966,16280.9,1640,1,9,0.9206749,3.599928,3.31436,5.336708,4.827286,20.67844,16.74837,,-6.67762e-06,,,,27.40574,0.07297277,-270,0,-270,0,-270,0,-270,0,-270,0,-270,0,-270,0,-270,0,-270,0,-270,0,-270,0,-270,0,-270,0,-270,0,-270,0,25,0
13465,12/04/2020 22:10:26:965,16424.9,1784,1,9,0.7730953,3.599967,2.78312,5.370422,4.827286,20.79981,16.74837,,,,,,27.29609,0.09808838,-270,0,-270,0,-270,0,-270,0,-270,0,-270,0,-270,0,-270,0,-270,0,-270,0,-270,0,-270,0,-270,0,-270,0,-270,0,25,0
13537,12/04/2020 22:12:50:965,16568.9,1928,1,9,0.6523312,3.599823,2.34828,5.39881,4.827286,20.90201,16.74837,,,,,,26.82864,-0.08022189,-270,0,-270,0,-270,0,-270,0,-270,0,-270,0,-270,0,-270,0,-270,0,-270,0,-270,0,-270,0,-270,0,-270,0,-270,0,25,0
13609,12/04/2020 22:15:14:965,16712.9,2072,1,9,0.5537649,3.599988,1.99355,5.422843,4.827286,20.98853,16.74837,,,,,,26.90354,0.08957624,-270,0,-270,0,-270,0,-270,0,-270,0,-270,0,-270,0,-270,0,-270,0,-270,0,-270,0,-270,0,-270,0,-270,0,-270,0,25,0
13681,12/04/2020 22:17:38:966,16856.949,2216,1,9,0.4720287,3.600005,1.69931,5.44326,4.827286,21.06203,16.74837,,,,,,27.22728,0.05358398,-270,0,-270,0,-270,0,-270,0,-270,0,-270,0,-270,0,-270,0,-270,0,-270,0,-270,0,-270,0,-270,0,-270,0,-270,0,25,0
13753,12/04/2020 22:20:02:966,17000.9,2360,1,9,0.4018332,3.600079,1.44663,5.460642,4.827286,21.1246,16.74837,,,,,,26.57627,-0.1063156,-270,0,-270,0,-270,0,-270,0,-270,0,-270,0,-270,0,-270,0,-270,0,-270,0,-270,0,-270,0,-270,0,-270,0,-270,0,25,0
13825,12/04/2020 22:22:26:966,17144.949,2504,1,9,0.342509,3.600008,1.23304,5.475466,4.827286,21.17797,16.74837,,,,,,26.81818,-0.08429229,-270,0,-270,0,-270,0,-270,0,-270,0,-270,0,-270,0,-270,0,-270,0,-270,0,-270,0,-270,0,-270,0,-270,0,-270,0,25,0
13897,12/04/2020 22:24:50:966,17288.9,2648,1,9,0.293195,3.600038,1.05551,5.488144,4.827286,21.22361,16.74837,,,,,,26.8097,0.08068264,-270,0,-270,0,-270,0,-270,0,-270,0,-270,0,-270,0,-270,0,-270,0,-270,0,-270,0,-270,0,-270,0,-270,0,-270,0,25,0
13969,12/04/2020 22:27:14:965,17432.9,2792,1,9,0.2523687,3.599981,0.908523,5.499009,4.827286,21.26272,16.74837,,,,,,26.40982,-0.2249235,-270,0,-270,0,-270,0,-270,0,-270,0,-270,0,-270,0,-270,0,-270,0,-270,0,-270,0,-270,0,-270,0,-270,0,-270,0,25,0
14041,12/04/2020 22:29:38:966,17576.9,2936,1,9,0.2157284,3.599936,0.776608,5.508342,4.827286,21.29632,16.74837,,,,,0,26.48211,-0.09876668,-270,0,-270,0,-270,0,-270,0,-270,0,-270,0,-270,0,-270,0,-270,0,-270,0,-270,0,-270,0,-270,0,-270,0,-270,0,25,0
14113,12/04/2020 22:32:02:965,17720.9,3080,1,9,0.1873278,3.599962,0.674373,5.516406,4.827286,21.32535,16.74837,,,,,,27.09731,0.06685138,-270,0,-270,0,-270,0,-270,0,-270,0,-270,0,-270,0,-270,0,-270,0,-270,0,-270,0,-270,0,-270,0,-270,0,-270,0,25,0
14185,12/04/2020 22:34:26:965,17864.9,3224,1,9,0.1628431,3.600007,0.586236,5.52339,4.827286,21.3505,16.74837,,,,,,26.95219,-0.04317641,-270,0,-270,0,-270,0,-270,0,-270,0,-270,0,-270,0,-270,0,-270,0,-270,0,-270,0,-270,0,-270,0,-270,0,-270,0,25,0
14257,12/04/2020 22:36:50:965,18008.9,3368,1,9,0.141667,3.599946,0.509994,5.529474,4.827286,21.3724,16.74837,,,,,,26.71955,0.1505113,-270,0,-270,0,-270,0,-270,0,-270,0,-270,0,-270,0,-270,0,-270,0,-270,0,-270,0,-270,0,-270,0,-270,0,-270,0,25,0
14329,12/04/2020 22:39:14:965,18152.9,3512,1,9,0.124589,3.600024,0.448523,5.534794,4.827286,21.39155,16.74837,,-1.42245e-06,,,,26.88818,-0.1496267,-270,0,-270,0,-270,0,-270,0,-270,0,-270,0,-270,0,-270,0,-270,0,-270,0,-270,0,-270,0,-270,0,-270,0,-270,0,25,0
14401,12/04/2020 22:41:38:965,18296.9,3656,1,9,0.1091893,3.600081,0.39309,5.53947,4.827286,21.40838,16.74837,,1.94797e-05,,,,27.05748,-0.1060164,-270,0,-270,0,-270,0,-270,0,-270,0,-270,0,-270,0,-270,0,-270,0,-270,0,-270,0,-270,0,-270,0,-270,0,-270,0,25,0
14473,12/04/2020 22:44:02:966,18440.9,3800,1,9,0.09660844,3.600016,0.347792,5.543598,4.827286,21.42324,16.74837,,,,,,26.87863,0.1572841,-270,0,-270,0,-270,0,-270,0,-270,0,-270,0,-270,0,-270,0,-270,0,-270,0,-270,0,-270,0,-270,0,-270,0,-270,0,25,0
14545,12/04/2020 22:46:26:966,18584.949,3944,1,9,0.08727583,3.599974,0.314191,5.547258,4.827286,21.43642,16.74837,,,,,,26.96482,-0.007350445,-270,0,-270,0,-270,0,-270,0,-270,0,-270,0,-270,0,-270,0,-270,0,-270,0,-270,0,-270,0,-270,0,-270,0,-270,0,25,0
14617,12/04/2020 22:48:50:966,18728.9,4088,1,9,0.07677342,3.599978,0.276383,5.550515,4.827286,21.44815,16.74837,,,,,,26.55944,-0.1269525,-270,0,-270,0,-270,0,-270,0,-270,0,-270,0,-270,0,-270,0,-270,0,-270,0,-270,0,-270,0,-270,0,-270,0,-270,0,25,0
14689,12/04/2020 22:51:14:966,18872.9,4232,1,9,0.06833483,3.59993,0.246001,5.553426,4.827286,21.45863,16.74837,,,,,,26.45231,-0.07147491,-270,0,-270,0,-270,0,-270,0,-270,0,-270,0,-270,0,-270,0,-270,0,-270,0,-270,0,-270,0,-270,0,-270,0,-270,0,25,0
14761,12/04/2020 22:53:38:965,19016.9,4376,1,9,0.06116923,3.599999,0.220209,5.55604,4.827286,21.46804,16.74837,,,,,,26.97389,-0.07682681,-270,0,-270,0,-270,0,-270,0,-270,0,-270,0,-270,0,-270,0,-270,0,-270,0,-270,0,-270,0,-270,0,-270,0,-270,0,25,0
14833,12/04/2020 22:56:02:966,19160.9,4520,1,9,0.05701447,3.600024,0.205253,5.558401,4.827286,21.47654,16.74837,,,,,,26.76641,0.1607704,-270,0,-270,0,-270,0,-270,0,-270,0,-270,0,-270,0,-270,0,-270,0,-270,0,-270,0,-270,0,-270,0,-270,0,-270,0,25,0
14905,12/04/2020 22:58:26:966,19304.9,4664.001,1,9,0.05164551,3.600217,0.185935,5.56054,4.827286,21.48424,16.74837,,,,,,26.89006,-0.1057661,-270,0,-270,0,-270,0,-270,0,-270,0,-270,0,-270,0,-270,0,-270,0,-270,0,-270,0,-270,0,-270,0,-270,0,-270,0,25,0
14910,12/04/2020 22:58:36:248,19314.2,4673.283,1,9,0.0499964,3.59997,0.179986,5.560671,4.827286,21.48471,16.74837,,8.06049e-06,0,0,0,26.72361,-0.07749379,-270,0,-270,0,-270,0,-270,0,-270,0,-270,0,-270,0,-270,0,-270,0,-270,0,-270,0,-270,0,-270,0,-270,0,-270,0,25,0