File: Julia/LGM50 PBBM Validation/210129_LGM50_GITT_Channel_3_Wb_1.CSV
Data_Point,Date_Time,Test_Time(s),Step_Time(s),Cycle_Index,Step_Index,Current(A),Voltage(V),Power(W),Charge_Capacity(Ah),Discharge_Capacity(Ah),Charge_Energy(Wh),Discharge_Energy(Wh),ACR(Ohm),dV/dt(V/s),Internal_Resistance(Ohm),dQ/dV(Ah/V),dV/dQ(V/Ah)
1,2021/01/29 08:32:05,30.0008,30.0007,1,1,0,3.071703,0,0,0,0,0,,-1.03127e-05,,,
57,2021/01/29 08:59:46,1691.3,1590,1,2,0,3.070661,0,0,0,0,0,,-2.16132e-05,,0,0
113,2021/01/29 09:11:09,2373.408,470.0006,1,4,1.500046,3.417285,5.12608,0.1956236,0.000000001739925,0.6495548,0.000000005344285,,0.000200445,,1.79063,0.592601
169,2021/01/29 09:20:29,2933.41,1030,1,4,1.499971,3.489697,5.23444,0.428667,0.000000001739925,1.455971,0.000000005344285,,5.89127e-05,,,
225,2021/01/29 09:29:49,3493.41,1590,1,4,1.499998,3.534541,5.3018,0.66175,0.000000001739925,2.274575,0.000000005344285,,,,,
281,2021/01/29 09:39:09,4053.41,2150,1,4,1.499997,3.582051,5.37307,0.8947869,0.000000001739925,3.103673,0.000000005344285,,7.59424e-05,,,
337,2021/01/29 09:48:29,4613.41,2710,1,4,1.499955,3.631558,5.44717,1.127847,0.000000001739925,3.94436,0.000000005344285,,,,,
393,2021/01/29 09:57:49,5173.408,3270,1,4,1.499985,3.667143,5.50066,1.360915,0.000000001739925,4.795306,0.000000005344285,,4.10137e-05,,,0.126962
449,2021/01/29 10:07:09,5733.41,3830,1,4,1.499951,3.695954,5.54375,1.593945,0.000000001739925,5.653189,0.000000005344285,,5.01805e-05,,,
505,2021/01/29 10:16:29,6293.41,4390,1,4,1.499913,3.727867,5.59148,1.827034,0.000000001739925,6.518323,0.000000005344285,,,,6.89423,
561,2021/01/29 10:25:49,6853.41,4950,1,4,1.499977,3.765388,5.648,2.060039,0.000000001739925,7.39118,0.000000005344285,,7.2821e-05,,,
617,2021/01/29 10:35:09,7413.41,5510,1,4,1.499966,3.80891,5.71324,2.293082,0.000000001739925,8.27365,0.000000005344285,,0.000100033,,5.00686,
673,2021/01/29 10:44:29,7973.408,6070,1,4,1.499907,3.856898,5.78499,2.526172,0.000000001739925,9.167,0.000000005344285,,0.000100196,,,
729,2021/01/29 10:53:49,8533.41,6630,1,4,1.499867,3.904371,5.85604,2.759208,0.000000001739925,10.07133,0.000000005344285,,5.88732e-05,,4.98718,
785,2021/01/29 11:03:09,9093.41,7190,1,4,1.499981,3.948992,5.92341,2.992276,0.000000001739925,10.98652,0.000000005344285,,6.65386e-05,,5.47782,
841,2021/01/29 11:12:29,9653.41,7750,1,4,1.499957,3.991241,5.98669,3.225349,0.000000001739925,11.91181,0.000000005344285,,5.84381e-05,,,
897,2021/01/29 11:21:49,10213.4,8310,1,4,1.499942,4.037187,6.05555,3.458448,0.000000001739925,12.84734,0.000000005344285,,0.00010102,,,
953,2021/01/29 11:31:09,10773.4,8870,1,4,1.499927,4.091882,6.13752,3.691492,0.000000001739925,13.79441,0.000000005344285,,5.52376e-05,,,
1009,2021/01/29 11:40:29,11333.408,9430,1,4,1.500012,4.146008,6.21906,3.924553,0.000000001739925,14.75455,0.000000005344285,,5.68181e-05,,,
1065,2021/01/29 11:49:49,11893.4,9990,1,4,1.499954,4.182264,6.2732,4.157579,0.000000001739925,15.72535,0.000000005344285,,1.17745e-05,,,
1121,2021/01/29 11:59:09,12453.408,10550,1,4,1.324796,4.199739,5.5638,4.385608,0.000000001739925,16.68168,0.000000005344285,,1.97559e-06,,,
1177,2021/01/29 12:08:29,13013.4,11110,1,4,0.89159,4.199896,3.74459,4.557731,0.000000001739925,17.4046,0.000000005344285,,1.46194e-05,,,
1233,2021/01/29 12:17:49,13573.4,11670,1,4,0.507513,4.199871,2.13149,4.66503,0.000000001739925,17.85525,0.000000005344285,,,,,
1289,2021/01/29 12:27:09,14133.4,12230,1,4,0.260197,4.199862,1.09279,4.722699,0.000000001739925,18.09746,0.000000005344285,,2.06242e-05,,,
1345,2021/01/29 12:36:29,14693.4,12790,1,4,0.1336615,4.199866,0.56136,4.752071,0.000000001739925,18.22082,0.000000005344285,,2.44976e-06,,,
1401,2021/01/29 12:45:49,15253.4,13350,1,4,0.07429061,4.199954,0.312017,4.767631,0.000000001739925,18.28617,0.000000005344285,,-1.65951e-06,,,0
1457,2021/01/29 14:52:50,22874.8,2.0009,1,6,-1.250192,4.148117,-5.18594,4.774758,0.0006917671,18.31611,0.002870823,,-0.00271443,,0.00100273,997.275
1513,2021/01/29 14:54:42,22986.8,114.0003,1,6,-1.250136,4.111238,-5.13961,4.774758,0.03953975,18.31611,0.1631237,,,,1.77216,0.612865
1569,2021/01/29 14:56:34,23098.8,226.0004,1,6,-1.25015,4.093624,-5.11764,4.774758,0.07839187,18.31611,0.3224931,,-0.000105119,,,
1625,2021/01/29 14:58:26,23210.8,338.0012,1,6,-1.250121,4.080518,-5.10114,4.774758,0.1172351,18.31611,0.4812352,,,,,
1681,2021/01/29 15:00:18,23322.8,450.0004,1,6,-1.250146,4.07017,-5.08831,4.774758,0.1560789,18.31611,0.6395251,,,,,
1737,2021/01/29 15:02:10,23434.8,562.0004,1,6,-1.250172,4.061878,-5.07805,4.774758,0.1949242,18.31611,0.7974611,,,,,
1793,2021/01/29 15:04:02,23546.8,674.0001,1,6,-1.250168,4.055123,-5.06959,4.774758,0.2337748,18.31611,0.9551266,,,,,
1849,2021/01/29 15:05:20,23624.9,32.0001,1,7,0,4.096975,0,4.774758,0.2497324,18.31611,1.019814,,,,,
1905,2021/01/29 15:06:16,23680.9,88.0002,1,7,0,4.10202,0,4.774758,0.2497324,18.31611,1.019814,,,,,
1961,2021/01/29 15:07:12,23736.9,144.0005,1,7,0,4.103938,0,4.774758,0.2497324,18.31611,1.019814,,,,,
2017,2021/01/29 15:08:08,23792.9,200.0004,1,7,0,4.104722,0,4.774758,0.2497324,18.31611,1.019814,,,,,
2073,2021/01/29 15:09:04,23848.9,256.0002,1,7,0,4.105287,0,4.774758,0.2497324,18.31611,1.019814,,,,,
2129,2021/01/29 15:10:00,23904.9,312.0001,1,7,0,4.105854,0,4.774758,0.2497324,18.31611,1.019814,,,,,
2185,2021/01/29 15:10:56,23960.9,368.0008,1,7,0,4.106133,0,4.774758,0.2497324,18.31611,1.019814,,,,,
2241,2021/01/29 15:11:52,24016.9,424.0008,1,7,0,4.106438,0,4.774758,0.2497324,18.31611,1.019814,,3.63509e-05,,,
2297,2021/01/29 15:12:48,24072.9,480.0003,1,7,0,4.106405,0,4.774758,0.2497324,18.31611,1.019814,,,,,
2353,2021/01/29 15:13:44,24128.858,536,1,7,0,4.106702,0,4.774758,0.2497324,18.31611,1.019814,,,,,
2409,2021/01/29 15:14:40,24184.9,592.0007,1,7,0,4.106929,0,4.774758,0.2497324,18.31611,1.019814,,,,,
2465,2021/01/29 16:01:48,27012.883,2820,1,8,0,4.108153,0,4.774758,0.2497324,18.31611,1.019814,,2.43395e-05,,0,0
2521,2021/01/29 16:57:48,30372.9,6180,1,8,0,4.108605,0,4.774758,0.2497324,18.31611,1.019814,,-3.23997e-05,,0,0
2577,2021/01/29 17:53:48,33732.9,9540,1,8,0,4.108568,0,4.774758,0.2497324,18.31611,1.019814,,-9.00871e-06,,,
2633,2021/01/29 18:49:48,37092.9,12900,1,8,0,4.108732,0,4.774758,0.2497324,18.31611,1.019814,,-4.34634e-05,,,
2689,2021/01/29 19:06:06,38070.9,78.0001,1,6,-1.250128,4.054873,-5.06911,4.774758,0.2768008,18.31611,1.12976,,,,,
2745,2021/01/29 19:07:58,38182.9,190.0007,1,6,-1.250109,4.045993,-5.05793,4.774758,0.3156477,18.31611,1.287083,,,,,
2801,2021/01/29 19:09:50,38294.9,302.0002,1,6,-1.250126,4.040964,-5.05171,4.774758,0.3544928,18.31611,1.444144,,,,,
2857,2021/01/29 19:11:42,38406.9,414.0005,1,6,-1.250152,4.03665,-5.04643,4.774758,0.3933418,18.31611,1.601039,,,,,
2913,2021/01/29 19:13:34,38518.9,526.0001,1,6,-1.250181,4.032659,-5.04155,4.774758,0.4321886,18.31611,1.757765,,,,,
2969,2021/01/29 19:15:26,38630.9,638.0006,1,6,-1.250188,4.02879,-5.03674,4.774758,0.4710349,18.31611,1.914335,,,,,
3025,2021/01/29 19:17:02,38726.96,14.0002,1,7,0,4.067321,0,4.774758,0.4994788,18.31611,2.028883,,,,,
3081,2021/01/29 19:17:58,38783,70.0008,1,7,0,4.077151,0,4.774758,0.4994788,18.31611,2.028883,,,,,
3137,2021/01/29 19:18:54,38839,126.0003,1,7,0,4.080121,0,4.774758,0.4994788,18.31611,2.028883,,,,,
3193,2021/01/29 19:19:50,38895,182.0004,1,7,0,4.081856,0,4.774758,0.4994788,18.31611,2.028883,,,,,
3249,2021/01/29 19:20:46,38951,238.0007,1,7,0,4.082597,0,4.774758,0.4994788,18.31611,2.028883,,,,,
3305,2021/01/29 19:21:42,39007,294.0005,1,7,0,4.083299,0,4.774758,0.4994788,18.31611,2.028883,,,,,
3361,2021/01/29 19:22:38,39063,350.0003,1,7,0,4.08362,0,4.774758,0.4994788,18.31611,2.028883,,,,,
3417,2021/01/29 19:23:34,39118.96,406.0002,1,7,0,4.083868,0,4.774758,0.4994788,18.31611,2.028883,,,,,
3473,2021/01/29 19:24:30,39175,462.0007,1,7,0,4.083996,0,4.774758,0.4994788,18.31611,2.028883,,-1.47777e-05,,,
3529,2021/01/29 19:25:26,39231,518.0006,1,7,0,4.084082,0,4.774758,0.4994788,18.31611,2.028883,,,,,
3585,2021/01/29 19:26:22,39287,574.0004,1,7,0,4.084224,0,4.774758,0.4994788,18.31611,2.028883,,,,,
3641,2021/01/29 19:55:48,41053,1740,1,8,0,4.085923,0,4.774758,0.4994788,18.31611,2.028883,,1.99138e-05,,0,0
3697,2021/01/29 20:51:48,44413,5100,1,8,0,4.086302,0,4.774758,0.4994788,18.31611,2.028883,,1.34341e-06,,0,0
3753,2021/01/29 21:47:48,47773,8460,1,8,0,4.086574,0,4.774758,0.4994788,18.31611,2.028883,,7.34927e-06,,,
3809,2021/01/29 22:43:48,51133,11820,1,8,0,4.086486,0,4.774758,0.4994788,18.31611,2.028883,,1.72273e-05,,,
3865,2021/01/29 23:17:30,53155,42.0011,1,6,-1.25016,4.037793,-5.04789,4.774758,0.5140587,18.31611,2.087841,,-0.000152723,,,
3921,2021/01/29 23:19:22,53267,154.0008,1,6,-1.250126,4.024751,-5.03145,4.774758,0.5529016,18.31611,2.244373,,,,,
3977,2021/01/29 23:21:14,53379,266.0006,1,6,-1.250213,4.01841,-5.02387,4.774758,0.5917516,18.31611,2.400597,,,,,
4033,2021/01/29 23:23:06,53491,378.0002,1,6,-1.250138,4.013281,-5.01716,4.774758,0.6305978,18.31611,2.556589,,,,,
4089,2021/01/29 23:24:58,53603,490.0006,1,6,-1.250176,4.007843,-5.01051,4.774758,0.669449,18.31611,2.712399,,-5.07332e-05,,,
4145,2021/01/29 23:26:50,53715,602.0003,1,6,-1.250201,4.002209,-5.00357,4.774758,0.708298,18.31611,2.867988,,,,,
4201,2021/01/29 23:28:42,53827,714.0008,1,6,-1.250176,3.995875,-4.99555,4.774758,0.7471538,18.31611,3.023369,,,,,
4257,2021/01/29 23:29:40,53885.1,52.0002,1,7,0,4.047903,0,4.774758,0.749237,18.31611,3.031692,,,,,
4313,2021/01/29 23:30:36,53941.1,108.0003,1,7,0,4.054096,0,4.774758,0.749237,18.31611,3.031692,,,,,
4369,2021/01/29 23:31:32,53997.1,164.0011,1,7,0,4.056583,0,4.774758,0.749237,18.31611,3.031692,,,,,
4425,2021/01/29 23:32:28,54053.066,220.0006,1,7,0,4.05784,0,4.774758,0.749237,18.31611,3.031692,,,,,
4481,2021/01/29 23:33:24,54109.066,276.0006,1,7,0,4.0587,0,4.774758,0.749237,18.31611,3.031692,,,,,
4537,2021/01/29 23:34:20,54165.1,332.0001,1,7,0,4.059216,0,4.774758,0.749237,18.31611,3.031692,,-5.84805e-06,,,
4593,2021/01/29 23:35:16,54221.1,388.0002,1,7,0,4.059341,0,4.774758,0.749237,18.31611,3.031692,,,,,
4649,2021/01/29 23:36:12,54277.066,444.0006,1,7,0,4.059772,0,4.774758,0.749237,18.31611,3.031692,,,,,
4705,2021/01/29 23:37:08,54333.1,500.0004,1,7,0,4.059849,0,4.774758,0.749237,18.31611,3.031692,,,,,
4761,2021/01/29 23:38:04,54389.066,556.0006,1,7,0,4.060199,0,4.774758,0.749237,18.31611,3.031692,,,,,
4817,2021/01/29 23:49:48,55093.1,660,1,8,0,4.0608,0,4.774758,0.749237,18.31611,3.031692,,6.40092e-06,,0,0
4873,2021/01/30 00:45:48,58453.092,4020,1,8,0,4.062101,0,4.774758,0.749237,18.31611,3.031692,,4.89947e-06,,0,0
4929,2021/01/30 01:41:48,61813.1,7380,1,8,0,4.06235,0,4.774758,0.749237,18.31611,3.031692,,-1.97563e-05,,,
4985,2021/01/30 02:37:48,65173.1,10740,1,8,0,4.062421,0,4.774758,0.749237,18.31611,3.031692,,2.78954e-05,,,
5041,2021/01/30 03:28:54,68239.1,6.0012,1,6,-1.250154,4.024455,-5.03119,4.774758,0.7513286,18.31611,3.040116,,-0.000825962,,,
5097,2021/01/30 03:30:46,68351.1,118.001,1,6,-1.250109,3.994644,-4.99374,4.774758,0.7901744,18.31611,3.195728,,,,,
5153,2021/01/30 03:32:38,68463.1,230,1,6,-1.250129,3.9821,-4.97814,4.774758,0.8290181,18.31611,3.35063,,,,3.48701,0.300541
5209,2021/01/30 03:34:30,68575.1,342.0001,1,6,-1.250181,3.972502,-4.96635,4.774758,0.8678678,18.31611,3.505145,,,,,
5265,2021/01/30 03:36:22,68687.1,454,1,6,-1.250201,3.963343,-4.95498,4.774758,0.9067178,18.31611,3.659297,,,,,
5321,2021/01/30 03:38:14,68799.134,566.0005,1,6,-1.250216,3.953842,-4.94316,4.774758,0.9455696,18.31611,3.813093,,,,,
5377,2021/01/30 03:40:06,68911.1,678,1,6,-1.250181,3.944153,-4.93091,4.774758,0.9844176,18.31611,3.966508,,,,,
5433,2021/01/30 03:41:22,68987.2,34.0007,1,7,0,3.989387,0,4.774758,0.9989882,18.31611,4.023953,,,,,
5489,2021/01/30 03:42:18,69043.2,90.0005,1,7,0,3.999458,0,4.774758,0.9989882,18.31611,4.023953,,,,,
5545,2021/01/30 03:43:14,69099.2,146.0008,1,7,0,4.004302,0,4.774758,0.9989882,18.31611,4.023953,,,,,
5601,2021/01/30 03:44:10,69155.2,202.0005,1,7,0,4.006824,0,4.774758,0.9989882,18.31611,4.023953,,,,,
5657,2021/01/30 03:45:06,69211.2,258.0003,1,7,0,4.008267,0,4.774758,0.9989882,18.31611,4.023953,,,,,
5713,2021/01/30 03:46:02,69267.2,314.0005,1,7,0,4.009415,0,4.774758,0.9989882,18.31611,4.023953,,,,,
5769,2021/01/30 03:46:58,69323.2,370.0006,1,7,0,4.009632,0,4.774758,0.9989882,18.31611,4.023953,,,,,
5825,2021/01/30 03:47:54,69379.2,426,1,7,0,4.01003,0,4.774758,0.9989882,18.31611,4.023953,,,,,
5881,2021/01/30 03:48:50,69435.2,482.0002,1,7,0,4.010366,0,4.774758,0.9989882,18.31611,4.023953,,,,,
5937,2021/01/30 03:49:46,69491.2,538.0014,1,7,0,4.010549,0,4.774758,0.9989882,18.31611,4.023953,,,,,
5993,2021/01/30 03:50:42,69547.2,594.0003,1,7,0,4.01083,0,4.774758,0.9989882,18.31611,4.023953,,,,,
6049,2021/01/30 04:39:48,72493.196,2940,1,8,0,4.012813,0,4.774758,0.9989882,18.31611,4.023953,,-5.37366e-06,,0,0
6105,2021/01/30 05:35:48,75853.2,6300,1,8,0,4.013407,0,4.774758,0.9989882,18.31611,4.023953,,1.24857e-05,,0,0
6161,2021/01/30 06:31:48,79213.2,9660,1,8,0,4.013319,0,4.774758,0.9989882,18.31611,4.023953,,3.25581e-05,,,
6217,2021/01/30 07:27:48,82573.196,13020,1,8,0,4.013609,0,4.774758,0.9989882,18.31611,4.023953,,-1.68323e-05,,,
6273,2021/01/30 07:42:10,83435.2,82.0004,1,6,-1.249954,3.947217,-4.93384,4.774758,1.027444,18.31611,4.136643,,-0.000217813,,,
6329,2021/01/30 07:44:02,83547.2,194.0005,1,6,-1.249923,3.928851,-4.91076,4.774758,1.066293,18.31611,4.289591,,,,,
6385,2021/01/30 07:45:54,83659.2,306.0002,1,6,-1.249919,3.916901,-4.89581,4.774758,1.105135,18.31611,4.441944,,-8.4827e-05,,,
6441,2021/01/30 07:47:46,83771.2,418.0001,1,6,-1.25,3.906687,-4.88336,4.774758,1.143975,18.31611,4.593866,,,,,
6497,2021/01/30 07:49:38,83883.2,530.001,1,6,-1.249923,3.896977,-4.87092,4.774758,1.182813,18.31611,4.745401,,,,,
6553,2021/01/30 07:51:30,83995.239,642.0008,1,6,-1.249949,3.888132,-4.85997,4.774758,1.221655,18.31611,4.896596,,-7.37699e-05,,,
6609,2021/01/30 07:53:04,84089.3,16.0006,1,7,0,3.922631,0,4.774758,1.248707,18.31611,5.001696,,,,,
6665,2021/01/30 07:54:00,84145.3,72.0003,1,7,0,3.934861,0,4.774758,1.248707,18.31611,5.001696,,,,,
6721,2021/01/30 07:54:56,84201.3,128.0004,1,7,0,3.941451,0,4.774758,1.248707,18.31611,5.001696,,,,,
6777,2021/01/30 07:55:52,84257.3,184.0003,1,7,0,3.945944,0,4.774758,1.248707,18.31611,5.001696,,,,,
6833,2021/01/30 07:56:48,84313.3,240.0005,1,7,0,3.949365,0,4.774758,1.248707,18.31611,5.001696,,,,,
6889,2021/01/30 07:57:44,84369.3,296.0007,1,7,0,3.951637,0,4.774758,1.248707,18.31611,5.001696,,,,,
6945,2021/01/30 07:58:40,84425.3,352.0007,1,7,0,3.953203,0,4.774758,1.248707,18.31611,5.001696,,,,,
7001,2021/01/30 07:59:36,84481.3,408.0002,1,7,0,3.954353,0,4.774758,1.248707,18.31611,5.001696,,,,,
7057,2021/01/30 08:00:32,84537.3,464.0006,1,7,0,3.955018,0,4.774758,1.248707,18.31611,5.001696,,,,,
7113,2021/01/30 08:01:28,84593.3,520.0008,1,7,0,3.955686,0,4.774758,1.248707,18.31611,5.001696,,,,,
7169,2021/01/30 08:02:24,84649.3,576.0012,1,7,0,3.956101,0,4.774758,1.248707,18.31611,5.001696,,,,,
7225,2021/01/30 08:33:48,86533.3,1860,1,8,0,3.959204,0,4.774758,1.248707,18.31611,5.001696,,-3.12151e-05,,0,0
7281,2021/01/30 09:29:48,89893.3,5220,1,8,0,3.959904,0,4.774758,1.248707,18.31611,5.001696,,1.55682e-05,,0,0
7337,2021/01/30 10:25:48,93253.3,8580,1,8,0,3.96031,0,4.774758,1.248707,18.31611,5.001696,,-3.55616e-07,,,
7393,2021/01/30 11:21:48,96613.3,11940,1,8,0,3.96029,0,4.774758,1.248707,18.31611,5.001696,,1.34343e-06,,,
7449,2021/01/30 11:53:35,98519.3,46.0007,1,6,-1.25018,3.903925,-4.88061,4.774758,1.264671,18.31611,5.064175,,,,,
7505,2021/01/30 11:55:27,98631.3,158.0007,1,6,-1.250157,3.879575,-4.85008,4.774758,1.303518,18.31611,5.215284,,,,,
7561,2021/01/30 11:57:19,98743.3,270.0003,1,6,-1.250173,3.867033,-4.83446,4.774758,1.342368,18.31611,5.365741,,,,,
7617,2021/01/30 11:59:11,98855.3,382.0004,1,6,-1.250185,3.857759,-4.82291,4.774758,1.381224,18.31611,5.51581,,,,,
7673,2021/01/30 12:01:03,98967.343,494.0005,1,6,-1.250229,3.849643,-4.81294,4.774758,1.420073,18.31611,5.665515,,,,,
7729,2021/01/30 12:02:55,99079.3,606.0002,1,6,-1.250276,3.842196,-4.80381,4.774758,1.458918,18.31611,5.814903,,,,,
7785,2021/01/30 12:04:47,99191.3,718.0006,1,6,-1.250193,3.834934,-4.79441,4.774758,1.497771,18.31611,5.964043,,-8.80051e-05,,,
7841,2021/01/30 12:05:43,99247.382,54.0005,1,7,0,3.881242,0,4.774758,1.498467,18.31611,5.966711,,,,,
7897,2021/01/30 12:06:39,99303.4,110.0007,1,7,0,3.886957,0,4.774758,1.498467,18.31611,5.966711,,,,,
7953,2021/01/30 12:07:35,99359.4,166.0002,1,7,0,3.890519,0,4.774758,1.498467,18.31611,5.966711,,,,,
8009,2021/01/30 12:08:31,99415.4,222,1,7,0,3.893413,0,4.774758,1.498467,18.31611,5.966711,,,,,
8065,2021/01/30 12:09:27,99471.4,278.0001,1,7,0,3.895754,0,4.774758,1.498467,18.31611,5.966711,,,,,
8121,2021/01/30 12:10:23,99527.4,334.0002,1,7,0,3.898032,0,4.774758,1.498467,18.31611,5.966711,,,,,
8177,2021/01/30 12:11:19,99583.4,390.0003,1,7,0,3.900327,0,4.774758,1.498467,18.31611,5.966711,,,,,
8233,2021/01/30 12:12:15,99639.4,446.0004,1,7,0,3.902125,0,4.774758,1.498467,18.31611,5.966711,,,,,
8289,2021/01/30 12:13:11,99695.4,502.0003,1,7,0,3.904233,0,4.774758,1.498467,18.31611,5.966711,,,,,
8345,2021/01/30 12:14:07,99751.4,558.0003,1,7,0,3.905935,0,4.774758,1.498467,18.31611,5.966711,,,,,
8401,2021/01/30 12:27:49,100573,780.0003,1,8,0,3.913382,0,4.774758,1.498467,18.31611,5.966711,,2.17317e-05,,0,0
8457,2021/01/30 13:23:49,103933,4140,1,8,0,3.916274,0,4.774758,1.498467,18.31611,5.966711,,1.50149e-05,,0,0
8513,2021/01/30 14:19:49,107293,7500,1,8,0,3.916849,0,4.774758,1.498467,18.31611,5.966711,,7.74394e-06,,,
8569,2021/01/30 15:15:49,110653,10860,1,8,0,3.916786,0,4.774758,1.498467,18.31611,5.966711,,-2.55266e-05,,,
8625,2021/01/30 16:04:59,113603,10.0001,1,6,-1.250174,3.876358,-4.84612,4.774758,1.501946,18.31611,5.98021,,-0.000724967,,0.419388,3.31063
8681,2021/01/30 16:06:51,113715,122.0006,1,6,-1.250204,3.841966,-4.80324,4.774758,1.540798,18.31611,6.130023,,,,,
8737,2021/01/30 16:08:43,113827,234.0006,1,6,-1.250196,3.827633,-4.78529,4.774758,1.579649,18.31611,6.278981,,,,,
8793,2021/01/30 16:10:35,113939.449,346.0008,1,6,-1.250199,3.818129,-4.77342,4.774758,1.618495,18.31611,6.427482,,,,,
8849,2021/01/30 16:12:27,114051.449,458.0008,1,6,-1.250216,3.809733,-4.76299,4.774758,1.65734,18.31611,6.575635,,,,,
8905,2021/01/30 16:14:19,114163,570,1,6,-1.250196,3.802056,-4.75332,4.774758,1.69619,18.31611,6.723496,,-0.000108244,,,
8961,2021/01/30 16:16:11,114275,682.0002,1,6,-1.250136,3.794723,-4.74392,4.774758,1.73504,18.31611,6.871062,,,,,
9017,2021/01/30 16:17:25,114349,36.0004,1,7,0,3.834462,0,4.774758,1.748224,18.31611,6.921075,,,,,
9073,2021/01/30 16:18:21,114405,92.0001,1,7,0,3.83967,0,4.774758,1.748224,18.31611,6.921075,,,,,
9129,2021/01/30 16:19:17,114461,148.0004,1,7,0,3.842385,0,4.774758,1.748224,18.31611,6.921075,,,,,
9185,2021/01/30 16:20:13,114517,204.0005,1,7,0,3.844166,0,4.774758,1.748224,18.31611,6.921075,,,,,
9241,2021/01/30 16:21:09,114573.487,260.0007,1,7,0,3.845317,0,4.774758,1.748224,18.31611,6.921075,,4.5637e-05,,,
9297,2021/01/30 16:22:05,114629,316.0004,1,7,0,3.846335,0,4.774758,1.748224,18.31611,6.921075,,,,,
9353,2021/01/30 16:23:01,114685,372,1,7,0,3.847275,0,4.774758,1.748224,18.31611,6.921075,,,,,
9409,2021/01/30 16:23:57,114741,428.0005,1,7,0,3.848213,0,4.774758,1.748224,18.31611,6.921075,,,,,
9465,2021/01/30 16:24:53,114797,484,1,7,0,3.848805,0,4.774758,1.748224,18.31611,6.921075,,,,0,
9521,2021/01/30 16:25:49,114853,540.0003,1,7,0,3.849571,0,4.774758,1.748224,18.31611,6.921075,,,,,
9577,2021/01/30 16:26:45,114909,596.0001,1,7,0,3.849944,0,4.774758,1.748224,18.31611,6.921075,,,,,
9633,2021/01/30 17:17:49,117974,3060,1,8,0,3.864974,0,4.774758,1.748224,18.31611,6.921075,,3.31908e-05,,0,
9689,2021/01/30 18:13:49,121334,6420,1,8,0,3.868479,0,4.774758,1.748224,18.31611,6.921075,,-1.10635e-05,,0,
9745,2021/01/30 19:09:49,124694,9780,1,8,0,3.869562,0,4.774758,1.748224,18.31611,6.921075,,-1.92823e-05,,,
9801,2021/01/30 20:05:49,128054,13140,1,8,0,3.870331,0,4.774758,1.748224,18.31611,6.921075,,-9.08788e-06,,,
9857,2021/01/30 20:18:17,128802,88.0006,1,6,-1.250144,3.80304,-4.75435,4.774758,1.778763,18.31611,7.037617,,,,,
9913,2021/01/30 20:20:09,128914,200.0007,1,6,-1.25015,3.787662,-4.73515,4.774758,1.817608,18.31611,7.185014,,,,,
9969,2021/01/30 20:22:01,129025.551,312,1,6,-1.2502,3.777476,-4.7226,4.774758,1.856449,18.31611,7.331931,,,,,
10025,2021/01/30 20:23:53,129138,424.0003,1,6,-1.250188,3.768128,-4.71087,4.774758,1.8953,18.31611,7.478513,,,,,
10081,2021/01/30 20:25:45,129250,536.0005,1,6,-1.250213,3.759321,-4.69995,4.774758,1.934143,18.31611,7.624707,,,,,
10137,2021/01/30 20:27:37,129362,648.0005,1,6,-1.250159,3.750643,-4.6889,4.774758,1.972989,18.31611,7.770573,,,,,
10193,2021/01/30 20:29:08,129453,19.0006,1,7,0,3.78471,0,4.774758,1.997965,18.31611,7.864182,,,,,
10249,2021/01/30 20:30:04,129509,75.0006,1,7,0,3.791419,0,4.774758,1.997965,18.31611,7.864182,,,,,
10305,2021/01/30 20:31:00,129565,131.0007,1,7,0,3.793962,0,4.774758,1.997965,18.31611,7.864182,,,,,
10361,2021/01/30 20:31:56,129621,187.0004,1,7,0,3.795284,0,4.774758,1.997965,18.31611,7.864182,,,,,
10417,2021/01/30 20:32:52,129677,243.0004,1,7,0,3.796029,0,4.774758,1.997965,18.31611,7.864182,,,,,
10473,2021/01/30 20:33:48,129733,299.0001,1,7,0,3.796478,0,4.774758,1.997965,18.31611,7.864182,,,,,
10529,2021/01/30 20:34:44,129788.589,355.0005,1,7,0,3.797024,0,4.774758,1.997965,18.31611,7.864182,,7.34976e-06,,,
10585,2021/01/30 20:35:40,129845,411.0002,1,7,0,3.797425,0,4.774758,1.997965,18.31611,7.864182,,,,,
10641,2021/01/30 20:36:36,129901,467.0003,1,7,0,3.797603,0,4.774758,1.997965,18.31611,7.864182,,,,,
10697,2021/01/30 20:37:32,129957,523.0003,1,7,0,3.797999,0,4.774758,1.997965,18.31611,7.864182,,,,,
10753,2021/01/30 20:38:28,130013,579.0002,1,7,0,3.798113,0,4.774758,1.997965,18.31611,7.864182,,,,,
10809,2021/01/30 21:12:49,132074,2040,1,8,0,3.800403,0,4.774758,1.997965,18.31611,7.864182,,1.97563e-06,,,
10865,2021/01/30 22:08:49,135433.614,5400,1,8,0,3.801056,0,4.774758,1.997965,18.31611,7.864182,,6.12449e-06,,,
10921,2021/01/30 23:04:49,138794,8760,1,8,0,3.801265,0,4.774758,1.997965,18.31611,7.864182,,4.46492e-06,,0,0
10977,2021/01/31 00:00:49,142154,12120,1,8,0,3.801448,0,4.774758,1.997965,18.31611,7.864182,,4.06979e-06,,0,0
11033,2021/01/31 00:29:43,143888,54.0006,1,6,-1.25017,3.750946,-4.68932,4.774758,2.016706,18.31611,7.934612,,-0.00025498,,,
11089,2021/01/31 00:31:35,144000,166.0007,1,6,-1.250189,3.736461,-4.67128,4.774758,2.055554,18.31611,8.080027,,,,,
11145,2021/01/31 00:33:27,144112,278,1,6,-1.250204,3.726679,-4.65911,4.774758,2.094405,18.31611,8.225001,,,,,
11201,2021/01/31 00:35:19,144224,390.0008,1,6,-1.250217,3.717711,-4.64795,4.774758,2.133263,18.31611,8.369638,,-5.18014e-05,,,
11257,2021/01/31 00:37:11,144336,502.0004,1,6,-1.250175,3.708586,-4.63638,4.774758,2.17212,18.31611,8.513927,,,,,
11313,2021/01/31 00:39:03,144448,614.0001,1,6,-1.25017,3.699813,-4.6254,4.774758,2.210969,18.31611,8.657838,,,,,
11369,2021/01/31 00:40:51,144556,2.0005,1,7,0,3.724463,0,4.774758,2.247739,18.31611,8.793723,,,,,
11425,2021/01/31 00:41:47,144612,58.0006,1,7,0,3.73797,0,4.774758,2.247739,18.31611,8.793723,,,,,
11481,2021/01/31 00:42:43,144668,114.0003,1,7,0,3.742255,0,4.774758,2.247739,18.31611,8.793723,,,,,
11537,2021/01/31 00:43:39,144723.693,170,1,7,0,3.744313,0,4.774758,2.247739,18.31611,8.793723,,,,,
11593,2021/01/31 00:44:35,144779.693,226,1,7,0,3.745401,0,4.774758,2.247739,18.31611,8.793723,,,,,
11649,2021/01/31 00:45:31,144835.694,282.001,1,7,0,3.746183,0,4.774758,2.247739,18.31611,8.793723,,,,,
11705,2021/01/31 00:46:27,144892,338.0004,1,7,0,3.746767,0,4.774758,2.247739,18.31611,8.793723,,,,,
11761,2021/01/31 00:47:23,144948,394.0003,1,7,0,3.747145,0,4.774758,2.247739,18.31611,8.793723,,,,,
11817,2021/01/31 00:48:19,145004,450.0004,1,7,0,3.747431,0,4.774758,2.247739,18.31611,8.793723,,,,,
11873,2021/01/31 00:49:15,145059.693,506,1,7,0,3.747784,0,4.774758,2.247739,18.31611,8.793723,,,,,
11929,2021/01/31 00:50:11,145115.693,562,1,7,0,3.747878,0,4.774758,2.247739,18.31611,8.793723,,,,,
11985,2021/01/31 01:07:49,146174,1020,1,8,0,3.749474,0,4.774758,2.247739,18.31611,8.793723,,-8.17909e-06,,0,0
12041,2021/01/31 02:03:49,149534,4380,1,8,0,3.750861,0,4.774758,2.247739,18.31611,8.793723,,-1.17747e-05,,0,0
12097,2021/01/31 02:59:49,152894,7740,1,8,0,3.751071,0,4.774758,2.247739,18.31611,8.793723,,-1.69114e-05,,,
12153,2021/01/31 03:55:49,156254,11100,1,8,0,3.751197,0,4.774758,2.247739,18.31611,8.793723,,-2.77775e-05,,,
12209,2021/01/31 04:41:09,158974,20,1,6,-1.250196,3.709097,-4.6371,4.774758,2.254685,18.31611,8.819521,,,,,
12265,2021/01/31 04:43:01,159086,132.0006,1,6,-1.250181,3.687142,-4.60959,4.774758,2.293538,18.31611,8.963139,,,,,
12321,2021/01/31 04:44:53,159198,244.0003,1,6,-1.250203,3.675439,-4.59504,4.774758,2.332386,18.31611,9.106141,,,,,
12377,2021/01/31 04:46:45,159310,356.0001,1,6,-1.25019,3.666,-4.5832,4.774758,2.371236,18.31611,9.248749,,,,,
12433,2021/01/31 04:48:37,159422,468.0003,1,6,-1.250201,3.656901,-4.57186,4.774758,2.410085,18.31611,9.390994,,-8.78357e-05,,,
12489,2021/01/31 04:50:29,159534,580.0004,1,6,-1.250234,3.648282,-4.56121,4.774758,2.448928,18.31611,9.532876,,,,,
12545,2021/01/31 04:52:21,159646,692.0003,1,6,-1.250223,3.639957,-4.55076,4.774758,2.487776,18.31611,9.674444,,-7.31377e-05,,,
12601,2021/01/31 04:53:30,159715,41.0006,1,7,0,3.68308,0,4.774758,2.49749,18.31611,9.709792,,,,,
12657,2021/01/31 04:54:26,159771,97.0007,1,7,0,3.690156,0,4.774758,2.49749,18.31611,9.709792,,,,,
12713,2021/01/31 04:55:22,159827,153.0002,1,7,0,3.693672,0,4.774758,2.49749,18.31611,9.709792,,,,,
12769,2021/01/31 04:56:18,159883,209.0007,1,7,0,3.695806,0,4.774758,2.49749,18.31611,9.709792,,,,,
12825,2021/01/31 04:57:14,159939,265.0007,1,7,0,3.697065,0,4.774758,2.49749,18.31611,9.709792,,,,,
12881,2021/01/31 04:58:10,159995,321.0001,1,7,0,3.698089,0,4.774758,2.49749,18.31611,9.709792,,,,,
12937,2021/01/31 04:59:06,160051,377.0003,1,7,0,3.698592,0,4.774758,2.49749,18.31611,9.709792,,,,,
12993,2021/01/31 05:00:02,160107,433.0003,1,7,0,3.699242,0,4.774758,2.49749,18.31611,9.709792,,,,,
13049,2021/01/31 05:00:58,160163,489.0004,1,7,0,3.69956,0,4.774758,2.49749,18.31611,9.709792,,,,,
13105,2021/01/31 05:01:54,160219,545.0006,1,7,0,3.699859,0,4.774758,2.49749,18.31611,9.709792,,,,,
13161,2021/01/31 05:02:49,160274,600.0007,1,7,0,3.700016,0,4.774758,2.49749,18.31611,9.709792,,1.5647e-05,0.0298426,0,0
13217,2021/01/31 05:58:49,163634,3360,1,8,0,3.703314,0,4.774758,2.49749,18.31611,9.709792,,-3.67865e-05,,,
13273,2021/01/31 06:54:49,166994,6720,1,8,0,3.703421,0,4.774758,2.49749,18.31611,9.709792,,-1.69903e-06,,,
13329,2021/01/31 07:50:49,170354,10080,1,8,0,3.703779,0,4.774758,2.49749,18.31611,9.709792,,3.33881e-05,,0,0
13385,2021/01/31 08:46:49,173714,13440,1,8,0,3.704019,0,4.774758,2.49749,18.31611,9.709792,,6.48e-06,,0,0
13441,2021/01/31 08:54:27,174172,98.0007,1,6,-1.250204,3.644289,-4.5561,4.774758,2.531495,18.31611,9.834079,,-0.000197325,,,
13497,2021/01/31 08:56:19,174284,210.0007,1,6,-1.250188,3.62986,-4.53801,4.774758,2.570344,18.31611,9.975352,,,,,
13553,2021/01/31 08:58:11,174395.861,322.0006,1,6,-1.250197,3.619927,-4.52562,4.774758,2.609195,18.31611,10.11617,,,,,
13609,2021/01/31 09:00:03,174507.861,434.0006,1,6,-1.250197,3.611804,-4.51547,4.774758,2.64805,18.31611,10.25665,,,,,
13665,2021/01/31 09:01:55,174620,546.0001,1,6,-1.250172,3.604279,-4.50597,4.774758,2.686906,18.31611,10.39684,,,,,
13721,2021/01/31 09:03:47,174732,658.0001,1,6,-1.250189,3.59743,-4.49747,4.774758,2.725752,18.31611,10.53672,,-4.16861e-05,,,
13777,2021/01/31 09:05:13,174818,24.0001,1,7,0,3.635079,0,4.774758,2.747261,18.31611,10.61405,,,,,
13833,2021/01/31 09:06:09,174874,80.0001,1,7,0,3.644422,0,4.774758,2.747261,18.31611,10.61405,,,,,
13889,2021/01/31 09:07:05,174930,136.0008,1,7,0,3.649401,0,4.774758,2.747261,18.31611,10.61405,,,,,
13945,2021/01/31 09:08:01,174986,192.0007,1,7,0,3.652734,0,4.774758,2.747261,18.31611,10.61405,,,,,
14001,2021/01/31 09:08:57,175042,248.0001,1,7,0,3.655059,0,4.774758,2.747261,18.31611,10.61405,,,,,
14057,2021/01/31 09:09:53,175098,304.0001,1,7,0,3.656752,0,4.774758,2.747261,18.31611,10.61405,,,,,
14113,2021/01/31 09:10:49,175154,360.0003,1,7,0,3.658013,0,4.774758,2.747261,18.31611,10.61405,,,,,
14169,2021/01/31 09:11:45,175210,416.0001,1,7,0,3.658886,0,4.774758,2.747261,18.31611,10.61405,,2.60388e-05,,,
14225,2021/01/31 09:12:41,175266,472.0001,1,7,0,3.659581,0,4.774758,2.747261,18.31611,10.61405,,,,,
14281,2021/01/31 09:13:37,175322,528.0001,1,7,0,3.660087,0,4.774758,2.747261,18.31611,10.61405,,,,,
14337,2021/01/31 09:14:33,175377.898,584.0002,1,7,0,3.660663,0,4.774758,2.747261,18.31611,10.61405,,,,,
14393,2021/01/31 09:53:49,177734,2340,1,8,0,3.664551,0,4.774758,2.747261,18.31611,10.61405,,3.43779e-06,,0,0
14450,2021/01/31 18:58:43,181131,5737.46,1,8,0,3.665744,0,4.774758,2.747261,18.31611,10.61405,,0.0015058,,0,0
14506,2021/01/31 19:54:43,184491,9097.46,1,8,0,3.66594,0,4.774758,2.747261,18.31611,10.61405,,-0.00234236,,0,0
14562,2021/01/31 20:50:43,187851,12457.5,1,8,0,3.665986,0,4.774758,2.747261,18.31611,10.61405,,0.000334623,,,
14618,2021/01/31 21:14:09,189258,64.0005,1,6,-1.249779,3.612671,-4.51504,4.774758,2.769453,18.31611,10.69441,,0.00153269,,,
14674,2021/01/31 21:16:01,189369.959,176.0006,1,6,-1.249814,3.595287,-4.49344,4.774758,2.808292,18.31611,10.83435,,0.000851495,,,
14730,2021/01/31 21:17:53,189482,288.0013,1,6,-1.249735,3.584049,-4.47911,4.774758,2.847132,18.31611,10.97376,,-0.00635783,,,
14786,2021/01/31 21:19:45,189594,400.0008,1,6,-1.249775,3.575985,-4.46918,4.774758,2.885974,18.31611,11.11281,,-0.00119209,,,
14842,2021/01/31 21:21:37,189706,512.0007,1,6,-1.249761,3.569046,-4.46045,4.774758,2.924802,18.31611,11.25152,,-0.00147984,,,
14898,2021/01/31 21:23:29,189818,624.0008,1,6,-1.249808,3.562696,-4.45269,4.774758,2.963631,18.31611,11.38997,,-0.00658902,,,
14954,2021/01/31 21:25:12,189921,7.0005,1,7,0,3.593375,0,4.774758,2.996917,18.31611,11.50846,,0.000520186,,,
15010,2021/01/31 21:26:08,189977,63.0006,1,7,0,3.606396,0,4.774758,2.996917,18.31611,11.50846,,0.00100387,,,
15066,2021/01/31 21:27:04,190032.996,119,1,7,0,3.612466,0,4.774758,2.996917,18.31611,11.50846,,0.00374658,,,
15122,2021/01/31 21:28:00,190088.996,175,1,7,0,3.616097,0,4.774758,2.996917,18.31611,11.50846,,-0.000340598,,,
15178,2021/01/31 21:28:56,190145,231.0005,1,7,0,3.618716,0,4.774758,2.996917,18.31611,11.50846,,-0.000346791,,,
15234,2021/01/31 21:29:52,190201,287.0004,1,7,0,3.620681,0,4.774758,2.996917,18.31611,11.50846,,0.000343666,,,
15290,2021/01/31 21:30:48,190257,343.0001,1,7,0,3.62242,0,4.774758,2.996917,18.31611,11.50846,,0.00537525,,,
15346,2021/01/31 21:31:44,190313,399.0005,1,7,0,3.6239,0,4.774758,2.996917,18.31611,11.50846,,-0.00351354,,,
15402,2021/01/31 21:32:40,190369,455.0002,1,7,0,3.624894,0,4.774758,2.996917,18.31611,11.50846,,-0.00117118,,,
15458,2021/01/31 21:33:36,190424.996,511,1,7,0,3.625879,0,4.774758,2.996917,18.31611,11.50846,,-0.00213755,,,
15514,2021/01/31 21:34:32,190481,567.0006,1,7,0,3.626664,0,4.774758,2.996917,18.31611,11.50846,,0.00102179,,,
15570,2021/01/31 21:57:05,191834,1320,1,8,0,3.632248,0,4.774758,2.996917,18.31611,11.50846,,-0.000346791,,,
15626,2021/01/31 22:53:05,195194.021,4680,1,8,0,3.63423,0,4.774758,2.996917,18.31611,11.50846,,-0.00100387,,,
15682,2021/01/31 23:49:05,198554,8040,1,8,0,3.634837,0,4.774758,2.996917,18.31611,11.50846,,0.00289508,,0,0
15738,2021/02/01 00:45:05,201914,11400,1,8,0,3.635107,0,4.774758,2.996917,18.31611,11.50846,,-0.00119209,,0,0
15794,2021/02/01 01:25:33,204342,28.0001,1,6,-1.249953,3.590463,-4.48791,4.774758,3.006639,18.31611,11.54342,,-0.00284429,,,
15850,2021/02/01 01:27:25,204454,140.0009,1,6,-1.249992,3.568025,-4.46,4.774758,3.045485,18.31611,11.68241,,0.00221389,,,
15906,2021/02/01 01:29:17,204566,252,1,6,-1.249989,3.554799,-4.44346,4.774758,3.084332,18.31611,11.82075,,-0.000173395,,,0.327167
15962,2021/02/01 01:31:09,204678,364.0007,1,6,-1.249984,3.544933,-4.43111,4.774758,3.123177,18.31611,11.95864,,-0.00173395,,,
16018,2021/02/01 01:33:01,204790,476.0012,1,6,-1.24998,3.537254,-4.4215,4.774758,3.162018,18.31611,12.09618,,0.00433488,,,
16074,2021/02/01 01:34:53,204902.063,588.0006,1,6,-1.24996,3.529982,-4.41234,4.774758,3.200861,18.31611,12.23344,,0.000501934,,,
16130,2021/02/01 01:36:45,205014,700.0007,1,6,-1.249965,3.522692,-4.40324,4.774758,3.239702,18.31611,12.37041,,-0.00102179,,,
16186,2021/02/01 01:37:50,205079,45.0005,1,7,0,3.567588,0,4.774758,3.24664,18.31611,12.39485,,-0.000340598,,,
16242,2021/02/01 01:38:46,205135,101.0002,1,7,0,3.574828,0,4.774758,3.24664,18.31611,12.39485,,0.000681196,,,
16298,2021/02/01 01:39:42,205191,157.0002,1,7,0,3.57887,0,4.774758,3.24664,18.31611,12.39485,,-0.00102179,,,
16354,2021/02/01 01:40:38,205247,213.0001,1,7,0,3.581456,0,4.774758,3.24664,18.31611,12.39485,,0.000681196,,,
16410,2021/02/01 01:41:34,205303,269.0001,1,7,0,3.583212,0,4.774758,3.24664,18.31611,12.39485,,0.000173395,,,
16466,2021/02/01 01:42:30,205359,325.0006,1,7,0,3.584475,0,4.774758,3.24664,18.31611,12.39485,,-0.00119209,,,
16522,2021/02/01 01:43:26,205415,381.0001,1,7,0,3.585382,0,4.774758,3.24664,18.31611,12.39485,,-0.000346791,,,
16578,2021/02/01 01:44:22,205471,437.0006,1,7,0,3.586109,0,4.774758,3.24664,18.31611,12.39485,,-0.000170299,,,
16634,2021/02/01 01:45:18,205527,493.0005,1,7,0,3.586703,0,4.774758,3.24664,18.31611,12.39485,,0.00613076,,,
16690,2021/02/01 01:46:14,205583,549.0005,1,7,0,3.587142,0,4.774758,3.24664,18.31611,12.39485,,0.00317891,,,
16746,2021/02/01 01:51:06,205874,240,1,8,0,3.587978,0,4.774758,3.24664,18.31611,12.39485,,-0.00107673,,,
16802,2021/02/01 02:47:06,209234,3600,1,8,0,3.589451,0,4.774758,3.24664,18.31611,12.39485,,0.000190735,,,
16858,2021/02/01 03:43:06,212594,6960,1,8,0,3.590069,0,4.774758,3.24664,18.31611,12.39485,,0.00170299,,,
16914,2021/02/01 04:39:06,215954,10320,1,8,0,3.590239,0,4.774758,3.24664,18.31611,12.39485,,-0.000346791,,0,0
16970,2021/02/01 05:35:06,219314,13680,1,8,0,3.590532,0,4.774758,3.24664,18.31611,12.39485,,0.00260093,,0,0
17026,2021/02/01 05:38:52,219540,106.0004,1,6,-1.249809,3.527723,-4.40898,4.774758,3.283402,18.31611,12.52498,,-0.00117118,,,
17082,2021/02/01 05:40:44,219652,218.0011,1,6,-1.249679,3.513412,-4.39064,4.774758,3.322235,18.31611,12.66166,,-0.00510897,,,
17138,2021/02/01 05:42:36,219764,330.0005,1,6,-1.249738,3.503506,-4.37846,4.774758,3.361067,18.31611,12.7979,,-0.00953674,,,
17194,2021/02/01 05:44:28,219876,442.0003,1,6,-1.24977,3.494411,-4.36721,4.774758,3.399905,18.31611,12.9338,,0.000168792,,,
17250,2021/02/01 05:46:20,219988,554.0003,1,6,-1.24975,3.485194,-4.35562,4.774758,3.438743,18.31611,13.06934,,0.000173395,,,
17306,2021/02/01 05:48:12,220100,666.0004,1,6,-1.249747,3.4758,-4.34387,4.774758,3.477575,18.31611,13.2045,,0.000657706,,,
17362,2021/02/01 05:49:34,220182,28.0006,1,7,0,3.513721,0,4.774758,3.4963,18.31611,13.26954,,0.000173395,,,
17418,2021/02/01 05:50:30,220238,84.0006,1,7,0,3.521989,0,4.774758,3.4963,18.31611,13.26954,,0.00208074,,,
17474,2021/02/01 05:51:26,220294,140.0006,1,7,0,3.525964,0,4.774758,3.4963,18.31611,13.26954,,0.00384816,,,
17530,2021/02/01 05:52:22,220350,196,1,7,0,3.528211,0,4.774758,3.4963,18.31611,13.26954,,-0.000851495,,,
17586,2021/02/01 05:53:18,220406,252,1,7,0,3.529623,0,4.774758,3.4963,18.31611,13.26954,,-0.00136239,,,
17642,2021/02/01 05:54:14,220462,308,1,7,0,3.530458,0,4.774758,3.4963,18.31611,13.26954,,-0.000510897,,,
17698,2021/02/01 05:55:10,220518,364.0006,1,7,0,3.531136,0,4.774758,3.4963,18.31611,13.26954,,0.00289508,,,
17754,2021/02/01 05:56:06,220574,420,1,7,0,3.531591,0,4.774758,3.4963,18.31611,13.26954,,0.00166515,,,
17810,2021/02/01 05:57:02,220630,476.0004,1,7,0,3.531923,0,4.774758,3.4963,18.31611,13.26954,,-0.00153818,,,
17866,2021/02/01 05:57:58,220686,532.0005,1,7,0,3.532265,0,4.774758,3.4963,18.31611,13.26954,,0.000510897,,,
17922,2021/02/01 05:58:54,220742,588.0005,1,7,0,3.532413,0,4.774758,3.4963,18.31611,13.26954,,0.00104037,,,
17978,2021/02/01 06:42:06,223334,2580,1,8,0,3.534821,0,4.774758,3.4963,18.31611,13.26954,,-0.0015058,,0,0
18034,2021/02/01 07:38:06,226694,5940,1,8,0,3.5358,0,4.774758,3.4963,18.31611,13.26954,,-0.00901656,,0,0
18090,2021/02/01 08:34:06,230054,9300,1,8,0,3.536857,0,4.774758,3.4963,18.31611,13.26954,,0.00501934,,,
18146,2021/02/01 09:30:06,233414,12660,1,8,0,3.537299,0,4.774758,3.4963,18.31611,13.26954,,-0.00294772,,,
18202,2021/02/01 09:50:16,234624,70.0011,1,6,-1.250245,3.479634,-4.3504,4.774758,3.520588,18.31611,13.3543,,-0.00552127,,,
18258,2021/02/01 09:52:08,234736,182.0003,1,6,-1.250168,3.462183,-4.32831,4.774758,3.559436,18.31611,13.48909,,-0.00120283,,,
18314,2021/02/01 09:54:00,234848,294.0007,1,6,-1.250176,3.452861,-4.31668,4.774758,3.598282,18.31611,13.62338,,-0.0155599,,,
18370,2021/02/01 09:55:52,234960.272,406.0005,1,6,-1.250196,3.445299,-4.3073,4.774758,3.637132,18.31611,13.75737,,0.00225414,,,
18426,2021/02/01 09:57:44,235072.272,518.0005,1,6,-1.250164,3.43793,-4.29798,4.774758,3.675987,18.31611,13.8911,,-0.000866977,,,
18482,2021/02/01 09:59:36,235184,630.0009,1,6,-1.250174,3.430253,-4.28841,4.774758,3.714842,18.31611,14.02452,,0.00676242,,,
18538,2021/02/01 10:01:16,235284,10.0006,1,7,0,3.462604,0,4.774758,3.746067,18.31611,14.13154,,-0.00647136,,,
18594,2021/02/01 10:02:12,235340,66.0005,1,7,0,3.473641,0,4.774758,3.746067,18.31611,14.13154,,-0.000346791,,,
18650,2021/02/01 10:03:08,235396.309,122.0002,1,7,0,3.477509,0,4.774758,3.746067,18.31611,14.13154,,0.00622808,,,
18706,2021/02/01 10:04:04,235452.309,178.0002,1,7,0,3.479352,0,4.774758,3.746067,18.31611,14.13154,,-0.00732286,,,
18762,2021/02/01 10:05:00,235508,234.001,1,7,0,3.480286,0,4.774758,3.746067,18.31611,14.13154,,-0.00340598,,,
18818,2021/02/01 10:05:56,235564,290.0008,1,7,0,3.481,0,4.774758,3.746067,18.31611,14.13154,,-0.00526165,,,
18874,2021/02/01 10:06:52,235620,346.0008,1,7,0,3.481504,0,4.774758,3.746067,18.31611,14.13154,,0.00693581,,,
18930,2021/02/01 10:07:48,235676.309,402.0002,1,7,0,3.481918,0,4.774758,3.746067,18.31611,14.13154,,-0.00289508,,,
18986,2021/02/01 10:08:44,235732,458.0007,1,7,0,3.482124,0,4.774758,3.746067,18.31611,14.13154,,-0.000851495,,,
19042,2021/02/01 10:09:40,235788,514.0001,1,7,0,3.482335,0,4.774758,3.746067,18.31611,14.13154,,0.00289508,,,
19098,2021/02/01 10:10:36,235844,570.0007,1,7,0,3.482591,0,4.774758,3.746067,18.31611,14.13154,,-0.00783375,,,
19154,2021/02/01 10:36:06,237374,1500,1,8,0,3.484664,0,4.774758,3.746067,18.31611,14.13154,,0.00357628,,0,0
19210,2021/02/01 11:32:06,240734,4860,1,8,0,3.486049,0,4.774758,3.746067,18.31611,14.13154,,-0.00702707,,0,0
19266,2021/02/01 12:28:06,244094,8220,1,8,0,3.486936,0,4.774758,3.746067,18.31611,14.13154,,0.000167311,,,
19322,2021/02/01 13:24:06,247454,11580,1,8,0,3.487341,0,4.774758,3.746067,18.31611,14.13154,,0.0127157,,,
19378,2021/02/01 14:01:42,249710,36.0005,1,6,-1.250172,3.43852,-4.29874,4.774758,3.758564,18.31611,14.1746,,0.0144024,,,
19434,2021/02/01 14:03:34,249822,148.0006,1,6,-1.25021,3.418526,-4.27388,4.774758,3.797412,18.31611,14.30771,,0.00208074,,,
19490,2021/02/01 14:05:26,249934,260.0001,1,6,-1.250169,3.40844,-4.26113,4.774758,3.836258,18.31611,14.44031,,0.000836556,,,
19546,2021/02/01 14:07:18,250046,372.0006,1,6,-1.250177,3.399088,-4.24946,4.774758,3.875105,18.31611,14.57255,,0.00936335,,,
19602,2021/02/01 14:09:10,250158,484.0003,1,6,-1.250176,3.389234,-4.23714,4.774758,3.913949,18.31611,14.70439,,-0.00119209,,,
19658,2021/02/01 14:11:02,250270,596.0008,1,6,-1.250192,3.378675,-4.22399,4.774758,3.952799,18.31611,14.83586,,-0.00408718,,,
19714,2021/02/01 14:12:54,250382,708.0012,1,6,-1.250221,3.366755,-4.20919,4.774758,3.991646,18.31611,14.96689,,-0.000334623,,,
19770,2021/02/01 14:13:55,250443,49.0003,1,7,0,3.419152,0,4.774758,3.99581,18.31611,14.9809,,0.0119643,,,
19826,2021/02/01 14:14:51,250499.412,105.0001,1,7,0,3.427145,0,4.774758,3.99581,18.31611,14.9809,,0.00284429,,,
19882,2021/02/01 14:15:47,250555,161.0004,1,7,0,3.430872,0,4.774758,3.99581,18.31611,14.9809,,-0.000340598,,,
19938,2021/02/01 14:16:43,250611,217.0003,1,7,0,3.432739,0,4.774758,3.99581,18.31611,14.9809,,0.00398809,,,
19994,2021/02/01 14:17:39,250667,273.0004,1,7,0,3.434011,0,4.774758,3.99581,18.31611,14.9809,,-0.0126021,,,
20050,2021/02/01 14:18:35,250723,329.0002,1,7,0,3.434868,0,4.774758,3.99581,18.31611,14.9809,,0.0084771,,,
20106,2021/02/01 14:19:31,250779,385.0003,1,7,0,3.435469,0,4.774758,3.99581,18.31611,14.9809,,0.00242753,,,
20162,2021/02/01 14:20:27,250835,441.0007,1,7,0,3.436197,0,4.774758,3.99581,18.31611,14.9809,,-0.00630106,,,
20218,2021/02/01 14:21:23,250891,497.0006,1,7,0,3.436184,0,4.774758,3.99581,18.31611,14.9809,,0.0030116,,,
20274,2021/02/01 14:22:19,250947,553.0002,1,7,0,3.436749,0,4.774758,3.99581,18.31611,14.9809,,0.0015058,,,
20330,2021/02/01 14:31:06,251474,480.0003,1,8,0,3.438711,0,4.774758,3.99581,18.31611,14.9809,,0.00100387,,,
20386,2021/02/01 15:27:06,254834.438,3840,1,8,0,3.443414,0,4.774758,3.99581,18.31611,14.9809,,-0.000501934,,,
20442,2021/02/01 16:23:06,258194,7200,1,8,0,3.445583,0,4.774758,3.99581,18.31611,14.9809,,0.00800405,,,
20498,2021/02/01 17:19:06,261554,10560,1,8,0,3.446875,0,4.774758,3.99581,18.31611,14.9809,,0.0301429,,0,0
20554,2021/02/01 18:13:08,264796,2.0006,1,6,-1.250159,3.413486,-4.2674,4.774758,3.996514,18.31611,14.98331,,-0.00204359,,0.00113484,881.178
20610,2021/02/01 18:15:00,264908,114.0002,1,6,-1.25015,3.361623,-4.20253,4.774758,4.035361,18.31611,15.11474,,0.00836556,,1.03382,
20666,2021/02/01 18:16:52,265020,226.0006,1,6,-1.250212,3.331662,-4.16528,4.774758,4.074206,18.31611,15.24468,,-0.00317891,,1.79047,
20722,2021/02/01 18:18:44,265132,338.0003,1,6,-1.250177,3.320764,-4.15154,4.774758,4.113053,18.31611,15.37388,,-0.000334623,,,
20778,2021/02/01 18:20:36,265244,450.0008,1,6,-1.250169,3.30569,-4.13267,4.774758,4.151907,18.31611,15.50262,,-0.00102179,,,
20834,2021/02/01 18:22:28,265356,562.0008,1,6,-1.250168,3.287356,-4.10975,4.774758,4.190759,18.31611,15.6307,,0.00698226,,,
20890,2021/02/01 18:24:20,265468,674.0008,1,6,-1.250159,3.267313,-4.08466,4.774758,4.229611,18.31611,15.75804,,0.00255449,,,
20946,2021/02/01 18:25:38,265547,32.0007,1,7,0,3.31125,0,4.774758,4.245569,18.31611,15.81011,,0.00104037,,,
21002,2021/02/01 18:26:34,265603,88,1,7,0,3.322597,0,4.774758,4.245569,18.31611,15.81011,,0.0141285,,,
21058,2021/02/01 18:27:30,265659,144.0005,1,7,0,3.327365,0,4.774758,4.245569,18.31611,15.81011,,-0.00762939,,,
21114,2021/02/01 18:28:26,265715,200.0006,1,7,0,3.330256,0,4.774758,4.245569,18.31611,15.81011,,0.00442777,,,
21170,2021/02/01 18:29:22,265770.516,256.0002,1,7,0,3.332058,0,4.774758,4.245569,18.31611,15.81011,,0.00255449,,,
21226,2021/02/01 18:30:18,265827,312,1,7,0,3.333183,0,4.774758,4.245569,18.31611,15.81011,,-0.00102179,,,
21282,2021/02/01 18:31:14,265883,368.0006,1,7,0,3.334353,0,4.774758,4.245569,18.31611,15.81011,,-0.000167311,,,
21338,2021/02/01 18:32:10,265938.516,424.0002,1,7,0,3.335304,0,4.774758,4.245569,18.31611,15.81011,,-0.015779,,,
21394,2021/02/01 18:33:06,265995,480.0006,1,7,0,3.335754,0,4.774758,4.245569,18.31611,15.81011,,0.000346791,,,
21450,2021/02/01 18:34:02,266050.516,536.0002,1,7,0,3.336478,0,4.774758,4.245569,18.31611,15.81011,,0.00170299,,,
21506,2021/02/01 18:34:58,266107,592,1,7,0,3.336987,0,4.774758,4.245569,18.31611,15.81011,,-0.00596046,,,
21562,2021/02/01 19:22:06,268935,2820,1,8,0,3.346336,0,4.774758,4.245569,18.31611,15.81011,,0.00817435,,0,0
21618,2021/02/01 20:18:06,272295,6180,1,8,0,3.349959,0,4.774758,4.245569,18.31611,15.81011,,-0.000693581,,0,
21674,2021/02/01 21:14:06,275655,9540,1,8,0,3.352417,0,4.774758,4.245569,18.31611,15.81011,,0.0103882,,,
21730,2021/02/01 22:10:06,279015,12900,1,8,0,3.354104,0,4.774758,4.245569,18.31611,15.81011,,0.00693581,,,
21786,2021/02/01 22:26:26,279995,80.0005,1,6,-1.250162,3.263877,-4.08037,4.774758,4.273326,18.31611,15.90139,,-0.00119209,,,
21842,2021/02/01 22:28:18,280106.581,192.0006,1,6,-1.250186,3.21222,-4.01587,4.774758,4.31218,18.31611,16.02712,,-0.00589544,,,
21898,2021/02/01 22:30:10,280218.581,304.0006,1,6,-1.250197,3.190234,-3.98842,4.774758,4.351035,18.31611,16.15147,,-0.000173395,,,
21954,2021/02/01 22:32:02,280331,416.0001,1,6,-1.25018,3.165877,-3.95792,4.774758,4.389884,18.31611,16.27495,,0.0033776,,,
22010,2021/02/01 22:33:54,280443,528.0002,1,6,-1.250185,3.137893,-3.92295,4.774758,4.428731,18.31611,16.3974,,-0.000170299,,,
22066,2021/02/01 22:35:46,280555,640.0008,1,6,-1.250199,3.109112,-3.88701,4.774758,4.467579,18.31611,16.51875,,-0.00317891,,,
22122,2021/02/01 22:37:21,280650,15.0006,1,7,0,3.142681,0,4.774758,4.495327,18.31611,16.60473,,0.00658902,,,
22178,2021/02/01 22:38:17,280706,71.0006,1,7,0,3.163147,0,4.774758,4.495327,18.31611,16.60473,,-0.000170299,,,
22234,2021/02/01 22:39:13,280762,127.0007,1,7,0,3.170592,0,4.774758,4.495327,18.31611,16.60473,,-0.00184042,,,
22290,2021/02/01 22:40:09,280817.617,183.0002,1,7,0,3.174639,0,4.774758,4.495327,18.31611,16.60473,,-0.00834465,,,
22346,2021/02/01 22:41:05,280874,239,1,7,0,3.177375,0,4.774758,4.495327,18.31611,16.60473,,0.00669245,,,
22402,2021/02/01 22:42:01,280930,295.0001,1,7,0,3.179341,0,4.774758,4.495327,18.31611,16.60473,,-0.0132833,,,
22458,2021/02/01 22:42:57,280986,351.0001,1,7,0,3.180972,0,4.774758,4.495327,18.31611,16.60473,,-0.00238419,,,
22514,2021/02/01 22:43:53,281042,407.0009,1,7,0,3.182304,0,4.774758,4.495327,18.31611,16.60473,,0.00173395,,,
22570,2021/02/01 22:44:49,281098,463.0001,1,7,0,3.18333,0,4.774758,4.495327,18.31611,16.60473,,0.00433488,,,
22626,2021/02/01 22:45:45,281154,519.0004,1,7,0,3.184501,0,4.774758,4.495327,18.31611,16.60473,,0.00175165,,,
22682,2021/02/01 22:46:41,281210,575.0005,1,7,0,3.185193,0,4.774758,4.495327,18.31611,16.60473,,-0.00918995,,,
22738,2021/02/01 23:17:06,283035,1800,1,8,0,3.196751,0,4.774758,4.495327,18.31611,16.60473,,0.00676801,,,
22794,2021/02/02 00:13:06,286395,5160,1,8,0,3.204663,0,4.774758,4.495327,18.31611,16.60473,,0.000520186,,,
22850,2021/02/02 01:09:06,289755,8520,1,8,0,3.208632,0,4.774758,4.495327,18.31611,16.60473,,-0.00217505,,0,
22906,2021/02/02 02:05:06,293115,11880,1,8,0,3.211262,0,4.774758,4.495327,18.31611,16.60473,,-0.00102179,,0,
22962,2021/02/02 02:37:52,295081,46.0007,1,6,-1.249952,3.122101,-3.90248,4.774758,4.511291,18.31611,16.65495,,-0.0107505,,0.364252,
23018,2021/02/02 02:39:44,295193,158.0006,1,6,-1.249965,3.040243,-3.8002,4.774758,4.550135,18.31611,16.77443,,-0.0100476,,,
23074,2021/02/02 02:41:36,295305,270.0001,1,6,-1.249922,3.016101,-3.76989,4.774758,4.588981,18.31611,16.89204,,-0.00934601,,,
23130,2021/02/02 02:43:28,295417,382.0009,1,6,-1.249926,2.98395,-3.72972,4.774758,4.627817,18.31611,17.00858,,-0.00650921,,,
23186,2021/02/02 02:45:20,295529,494.0004,1,6,-1.249969,2.944271,-3.68025,4.774758,4.666658,18.31611,17.12374,,0.00152588,,,
23242,2021/02/02 02:47:12,295641,606.0011,1,6,-1.249973,2.896281,-3.62027,4.774758,4.705498,18.31611,17.23718,,-0.00049328,,0.738433,
23298,2021/02/02 02:49:04,295753,718.0011,1,6,-1.24997,2.836493,-3.54553,4.774758,4.744336,18.31611,17.34855,,-0.00167311,,,1.70364
23354,2021/02/02 02:50:00,295809,54.0006,1,7,0,2.939527,0,4.774758,4.745031,18.31611,17.35052,,0.00681196,,,
23410,2021/02/02 02:50:56,295865,110.0001,1,7,0,2.955242,0,4.774758,4.745031,18.31611,17.35052,,0.00664166,,,
23466,2021/02/02 02:51:52,295921,166,1,7,0,2.963454,0,4.774758,4.745031,18.31611,17.35052,,0.00619052,,,
23522,2021/02/02 02:52:48,295977,222.0002,1,7,0,2.968882,0,4.774758,4.745031,18.31611,17.35052,,-0.00170299,,,
23578,2021/02/02 02:53:44,296033,278.0001,1,7,0,2.973073,0,4.774758,4.745031,18.31611,17.35052,,0.00485507,,,
23634,2021/02/02 02:54:40,296089,334.0007,1,7,0,2.976309,0,4.774758,4.745031,18.31611,17.35052,,0.00635783,,,
23690,2021/02/02 02:55:36,296145,390.0004,1,7,0,2.979154,0,4.774758,4.745031,18.31611,17.35052,,0.00868525,,,
23746,2021/02/02 02:56:32,296201,446.0003,1,7,0,2.981503,0,4.774758,4.745031,18.31611,17.35052,,0.00136239,,,
23802,2021/02/02 02:57:28,296256.72,502.0008,1,7,0,2.983672,0,4.774758,4.745031,18.31611,17.35052,,-0.000510897,,,
23858,2021/02/02 02:58:24,296313,558.0005,1,7,0,2.985543,0,4.774758,4.745031,18.31611,17.35052,,0.000167311,,,
23914,2021/02/02 03:12:06,297135,780.0005,1,8,0,3.001053,0,4.774758,4.745031,18.31611,17.35052,,-0.00664166,,0,
23970,2021/02/02 04:08:06,300494.745,4140,1,8,0,3.022099,0,4.774758,4.745031,18.31611,17.35052,,-0.00676242,,0,
24026,2021/02/02 05:04:06,303855,7500,1,8,0,3.031215,0,4.774758,4.745031,18.31611,17.35052,,0.000340598,,,
24082,2021/02/02 06:00:06,307215,10860,1,8,0,3.037032,0,4.774758,4.745031,18.31611,17.35052,,-0.000194627,,,
24138,2021/02/02 06:49:18,310166.788,12.0012,1,6,-1.250173,2.96729,-3.70963,4.774758,4.749202,18.31611,17.36296,,-0.000302754,,,
24194,2021/02/02 06:51:10,310279,124,1,6,-1.250172,2.776213,-3.47074,4.774758,4.788044,18.31611,17.47434,,0.0152917,,0.243953,
24250,2021/02/02 06:53:02,310391,236.0001,1,6,-1.250138,2.661843,-3.32767,4.774758,4.826889,18.31611,17.57987,,-0.00272478,,,
24306,2021/02/02 06:54:54,310503,348.0001,1,6,-1.250141,2.515788,-3.14509,4.774758,4.865733,18.31611,17.68061,,-0.00115099,,,
24362,2021/02/02 06:56:44,310613,100.0001,1,10,0,2.687522,0,4.774758,4.86921,18.31611,17.68933,,-0.000346791,,,
24418,2021/02/02 06:58:36,310725,212.0005,1,10,0,2.713978,0,4.774758,4.86921,18.31611,17.68933,,-0.00277432,,,
24474,2021/02/02 07:00:28,310837,324.0006,1,10,0,2.729397,0,4.774758,4.86921,18.31611,17.68933,,0.00427509,,,
24530,2021/02/02 07:02:20,310949,436.0006,1,10,0,2.740284,0,4.774758,4.86921,18.31611,17.68933,,-0.00312112,,,
24586,2021/02/02 07:04:12,311061,548.0001,1,10,0,2.748469,0,4.774758,4.86921,18.31611,17.68933,,0.00049328,,,
24642,2021/02/02 07:34:04,312853,1740,1,11,0,2.801675,0,4.774758,4.86921,18.31611,17.68933,,-0.00710921,,0,
24698,2021/02/02 08:30:04,316213,5100,1,11,0,2.831941,0,4.774758,4.86921,18.31611,17.68933,,-0.000866977,,0,
24754,2021/02/02 09:26:04,319573,8460,1,11,0,2.845388,0,4.774758,4.86921,18.31611,17.68933,,-0.00238419,,,
24810,2021/02/02 10:22:04,322933,11820,1,11,0,2.854139,0,4.774758,4.86921,18.31611,17.68933,,-0.00334623,,,
24866,2021/02/02 11:17:04,326232.953,1320,1,13,0,2.860471,0,4.77476,4.869221,18.31611,17.68937,,0.00780279,,,
24875,2021/02/02 11:25:04,326713,1800,1,13,0,2.8613,0,4.77476,4.869221,18.31611,17.68937,,-0.00568858,0,0,0